action_times,actions,block,path,queries,rewards,rt,score,simulation_mode,state_rewards,time_elapsed,trial_index,trial_time,trial_id,trial_type,pid
"[19252, 20386, 21650]","[u'right', u'right', u'up']",train_basic,"[u'0', u'5', u'6', u'7']","{u'mouseover': {u'state': {u'target': [], u'time': []}, u'edge': {u'target': [], u'time': []}}, u'click': {u'state': {u'target': [], u'time': []}, u'edge': {u'target': [], u'time': []}}, u'mouseout': {u'state': {u'target': [], u'time': []}, u'edge': {u'target': [], u'time': []}}}","[-48, 8, 2]","[19250, 620, 749]",-38.0,"[None, None, None]","[u'', 24, 8, -4, -4, -48, 8, 2, 2, -24, 8, -2, 4]",24219,0.0,24097.0,6.82029765092e+18,mouselab-mdp,0
"[3509, 4581, 5477]","[u'up', u'up', u'right']",train_basic,"[u'0', u'1', u'2', u'3']","{u'mouseover': {u'state': {u'target': [], u'time': []}, u'edge': {u'target': [], u'time': []}}, u'click': {u'state': {u'target': [], u'time': []}, u'edge': {u'target': [], u'time': []}}, u'mouseout': {u'state': {u'target': [], u'time': []}, u'edge': {u'target': [], u'time': []}}}","[48, 4, -4]","[3508, 549, 376]",48.0,"[None, None, None]","[u'', 48, 4, -4, 2, -24, 4, 4, -2, 48, 4, -4, 4]",32779,1.0,7477.0,-7.72949551535e+18,mouselab-mdp,0
"[2250, 4169, 4793]","[u'up', u'up', u'left']",train_basic,"[u'0', u'1', u'2', u'4']","{u'mouseover': {u'state': {u'target': [], u'time': []}, u'edge': {u'target': [], u'time': []}}, u'click': {u'state': {u'target': [], u'time': []}, u'edge': {u'target': [], u'time': []}}, u'mouseout': {u'state': {u'target': [], u'time': []}, u'edge': {u'target': [], u'time': []}}}","[-48, -4, 2]","[2248, 1408, 114]",-50.0,"[None, None, None]","[u'', -48, -4, -2, 2, -48, -8, -4, -4, 24, -4, -2, 2]",43626,2.0,9753.0,5.87648543738e+18,mouselab-mdp,0
"[11229, 11979, 12939]","[u'left', u'left', u'up']",train_basic,"[u'0', u'9', u'10', u'11']","{u'mouseover': {u'state': {u'target': [], u'time': []}, u'edge': {u'target': [], u'time': []}}, u'click': {u'state': {u'target': [], u'time': []}, u'edge': {u'target': [], u'time': []}}, u'mouseout': {u'state': {u'target': [], u'time': []}, u'edge': {u'target': [], u'time': []}}}","[48, -4, 4]","[11227, 212, 439]",48.0,"[None, None, None]","[u'', -24, 8, -2, 2, 24, -8, -4, -2, 48, -4, 4, -4]",59321,3.0,14571.0,-3.20007329874e+18,mouselab-mdp,0
"[1151, 1904, 2639]","[u'right', u'right', u'up']",train_basic,"[u'0', u'5', u'6', u'7']","{u'mouseover': {u'state': {u'target': [], u'time': []}, u'edge': {u'target': [], u'time': []}}, u'click': {u'state': {u'target': [], u'time': []}, u'edge': {u'target': [], u'time': []}}, u'mouseout': {u'state': {u'target': [], u'time': []}, u'edge': {u'target': [], u'time': []}}}","[48, 8, 4]","[1150, 228, 217]",60.0,"[None, None, None]","[u'', -24, 8, 4, 2, 48, 8, 4, 4, -48, 4, 2, 2]",64217,4.0,3807.0,1.17043306924e+18,mouselab-mdp,0
"[22101, 22964, 23843]","[u'right', u'right', u'down']",train_basic2,"[u'0', u'5', u'6', u'8']","{u'mouseover': {u'state': {u'target': [], u'time': []}, u'edge': {u'target': [], u'time': []}}, u'click': {u'state': {u'target': [], u'time': []}, u'edge': {u'target': [], u'time': []}}, u'mouseout': {u'state': {u'target': [], u'time': []}, u'edge': {u'target': [], u'time': []}}}","[-48, 4, 4]","[22100, 342, 351]",-40.0,"[None, None, None]","[u'', -48, -4, 4, -2, -48, 4, -4, 4, -24, -8, 2, 4]",92649,5.0,25555.0,2.63443329641e+18,mouselab-mdp,0
"[1336, 1880, 2472]","[u'up', u'up', u'right']",train_basic2,"[u'0', u'1', u'2', u'3']","{u'mouseover': {u'state': {u'target': [], u'time': []}, u'edge': {u'target': [], u'time': []}}, u'click': {u'state': {u'target': [], u'time': []}, u'edge': {u'target': [], u'time': []}}, u'mouseout': {u'state': {u'target': [], u'time': []}, u'edge': {u'target': [], u'time': []}}}","[-48, 8, 2]","[1334, 29, 71]",-38.0,"[None, None, None]","[u'', -48, 8, 2, 2, -24, -8, -4, -2, -48, -8, 2, 2]",97065,6.0,3352.0,5.82719462411e+18,mouselab-mdp,0
"[524, 1181, 1868]","[u'right', u'right', u'down']",train_basic2,"[u'0', u'5', u'6', u'8']","{u'mouseover': {u'state': {u'target': [], u'time': []}, u'edge': {u'target': [], u'time': []}}, u'click': {u'state': {u'target': [], u'time': []}, u'edge': {u'target': [], u'time': []}}, u'mouseout': {u'state': {u'target': [], u'time': []}, u'edge': {u'target': [], u'time': []}}}","[48, 8, 2]","[523, 142, 179]",58.0,"[None, None, None]","[u'', -24, 4, 2, 2, 48, 8, -4, 2, -24, 8, -4, -2]",100872,7.0,2731.0,-4.80438429618e+18,mouselab-mdp,0
"[1265, 1888, 2577]","[u'right', u'right', u'up']",train_basic2,"[u'0', u'5', u'6', u'7']","{u'mouseover': {u'state': {u'target': [], u'time': []}, u'edge': {u'target': [], u'time': []}}, u'click': {u'state': {u'target': [], u'time': []}, u'edge': {u'target': [], u'time': []}}, u'mouseout': {u'state': {u'target': [], u'time': []}, u'edge': {u'target': [], u'time': []}}}","[-24, -8, 4]","[1263, 101, 172]",-28.0,"[None, None, None]","[u'', -48, -4, 4, -4, -24, -8, 4, 4, -48, -4, -4, 4]",105545,8.0,3568.0,1.07286752953e+18,mouselab-mdp,0
"[383, 958, 1742]","[u'up', u'up', u'right']",train_basic2,"[u'0', u'1', u'2', u'3']","{u'mouseover': {u'state': {u'target': [], u'time': []}, u'edge': {u'target': [], u'time': []}}, u'click': {u'state': {u'target': [], u'time': []}, u'edge': {u'target': [], u'time': []}}, u'mouseout': {u'state': {u'target': [], u'time': []}, u'edge': {u'target': [], u'time': []}}}","[48, 8, -2]","[382, 21, 263]",54.0,"[None, None, None]","[u'', 48, 8, -2, 2, 48, -4, -2, 2, -48, 4, -2, 4]",109370,9.0,2735.0,-5.53441172203e+18,mouselab-mdp,0
"[9688, 10376, 11127]","[u'up', u'up', u'right']",train_hidden,"[u'0', u'1', u'2', u'3']","{u'mouseover': {u'state': {u'target': [], u'time': []}, u'edge': {u'target': [], u'time': []}}, u'click': {u'state': {u'target': [], u'time': []}, u'edge': {u'target': [], u'time': []}}, u'mouseout': {u'state': {u'target': [], u'time': []}, u'edge': {u'target': [], u'time': []}}}","[24, 8, -4]","[9687, 168, 235]",28.0,"[None, None, None]","[u'', 24, 8, -4, -4, 48, 4, -4, 4, 48, 8, 2, -4]",124890,10.0,12215.0,-3.85987325249e+18,mouselab-mdp,0
"[336, 934, 1703]","[u'up', u'up', u'right']",train_hidden,"[u'0', u'1', u'2', u'3']","{u'mouseover': {u'state': {u'target': [], u'time': []}, u'edge': {u'target': [], u'time': []}}, u'click': {u'state': {u'target': [], u'time': []}, u'edge': {u'target': [], u'time': []}}, u'mouseout': {u'state': {u'target': [], u'time': []}, u'edge': {u'target': [], u'time': []}}}","[-48, -4, 2]","[334, 77, 241]",-50.0,"[None, None, None]","[u'', -48, -4, 2, -2, -48, 4, 2, 2, 48, 4, 4, -4]",128586,11.0,2630.0,4.78066487755e+18,mouselab-mdp,0
"[323, 1027, 1699]","[u'up', u'up', u'left']",train_hidden,"[u'0', u'1', u'2', u'4']","{u'mouseover': {u'state': {u'target': [], u'time': []}, u'edge': {u'target': [], u'time': []}}, u'click': {u'state': {u'target': [], u'time': []}, u'edge': {u'target': [], u'time': []}}, u'mouseout': {u'state': {u'target': [], u'time': []}, u'edge': {u'target': [], u'time': []}}}","[24, 4, 4]","[321, 153, 156]",32.0,"[None, None, None]","[u'', 24, 4, 2, 4, 24, -4, -2, -4, -24, -8, 4, -4]",132314,12.0,2627.0,-3.159164286e+18,mouselab-mdp,0
"[591, 1294, 2126]","[u'right', u'right', u'up']",train_hidden,"[u'0', u'5', u'6', u'7']","{u'mouseover': {u'state': {u'target': [], u'time': []}, u'edge': {u'target': [], u'time': []}}, u'click': {u'state': {u'target': [], u'time': []}, u'edge': {u'target': [], u'time': []}}, u'mouseout': {u'state': {u'target': [], u'time': []}, u'edge': {u'target': [], u'time': []}}}","[24, 4, -4]","[590, 185, 317]",24.0,"[None, None, None]","[u'', 24, -4, -4, 2, 24, 4, -4, 4, -48, 4, 4, -4]",136346,13.0,2958.0,6.60774480473e+18,mouselab-mdp,0
"[302, 958, 1630]","[u'up', u'up', u'right']",train_hidden,"[u'0', u'1', u'2', u'3']","{u'mouseover': {u'state': {u'target': [], u'time': []}, u'edge': {u'target': [], u'time': []}}, u'click': {u'state': {u'target': [], u'time': []}, u'edge': {u'target': [], u'time': []}}, u'mouseout': {u'state': {u'target': [], u'time': []}, u'edge': {u'target': [], u'time': []}}}","[-24, 8, 2]","[301, 116, 153]",-14.0,"[None, None, None]","[u'', -24, 8, 2, 4, 24, -4, 4, -4, 24, 8, 2, -4]",139866,14.0,2461.0,9.05488131509e+18,mouselab-mdp,0
"[1123, 1875, 2594]","[u'right', u'right', u'up']",train_inspector,"[u'0', u'5', u'6', u'7']","{u'mouseover': {u'state': {u'target': [], u'time': []}, u'edge': {u'target': [], u'time': []}}, u'click': {u'state': {u'target': [], u'time': []}, u'edge': {u'target': [], u'time': []}}, u'mouseout': {u'state': {u'target': [], u'time': []}, u'edge': {u'target': [], u'time': []}}}","[-48, 8, -4]","[1121, 232, 199]",-44.0,"[None, None, None]","[u'', 48, 8, 2, 4, -48, 8, -4, -4, -24, -8, 2, -4]",146170,15.0,3634.0,8.29494155133e+18,mouselab-mdp,0
"[427, 1179, 1963]","[u'up', u'up', u'left']",train_inspector,"[u'0', u'1', u'2', u'4']","{u'mouseover': {u'state': {u'target': [], u'time': []}, u'edge': {u'target': [], u'time': []}}, u'click': {u'state': {u'target': [], u'time': []}, u'edge': {u'target': [], u'time': []}}, u'mouseout': {u'state': {u'target': [], u'time': []}, u'edge': {u'target': [], u'time': []}}}","[48, 4, 2]","[426, 228, 264]",54.0,"[None, None, None]","[u'', 48, 4, 4, 2, 48, -4, 2, -4, -24, -8, -2, -4]",150361,16.0,3114.0,-6.7376156814e+18,mouselab-mdp,0
"[409, 1208, 2040]","[u'up', u'up', u'left']",train_inspector,"[u'0', u'1', u'2', u'4']","{u'mouseover': {u'state': {u'target': [], u'time': []}, u'edge': {u'target': [], u'time': []}}, u'click': {u'state': {u'target': [], u'time': []}, u'edge': {u'target': [], u'time': []}}, u'mouseout': {u'state': {u'target': [], u'time': []}, u'edge': {u'target': [], u'time': []}}}","[-48, 8, 2]","[407, 288, 321]",-38.0,"[None, None, None]","[u'', -48, 8, -4, 2, -24, 4, -4, -4, 48, 8, -2, 2]",154748,17.0,3322.0,-2.3218118651e+18,mouselab-mdp,0
"[514, 1346, 2130]","[u'left', u'left', u'up']",train_inspector,"[u'0', u'9', u'10', u'11']","{u'mouseover': {u'state': {u'target': [], u'time': []}, u'edge': {u'target': [], u'time': []}}, u'click': {u'state': {u'target': [], u'time': []}, u'edge': {u'target': [], u'time': []}}, u'mouseout': {u'state': {u'target': [], u'time': []}, u'edge': {u'target': [], u'time': []}}}","[48, -8, 4]","[513, 315, 264]",44.0,"[None, None, None]","[u'', 24, 4, -4, 2, -48, 8, 2, -4, 48, -8, 4, 2]",159066,18.0,3217.0,6.63672823162e+18,mouselab-mdp,0
"[674, 1553, 2321]","[u'left', u'left', u'down']",train_inspector,"[u'0', u'9', u'10', u'12']","{u'mouseover': {u'state': {u'target': [], u'time': []}, u'edge': {u'target': [], u'time': []}}, u'click': {u'state': {u'target': [], u'time': []}, u'edge': {u'target': [], u'time': []}}, u'mouseout': {u'state': {u'target': [], u'time': []}, u'edge': {u'target': [], u'time': []}}}","[-24, 8, -2]","[672, 361, 245]",-18.0,"[None, None, None]","[u'', -24, 8, -2, 4, 24, -4, 4, 2, -24, 8, -2, -2]",163690,19.0,3553.0,5.22633281768e+18,mouselab-mdp,0
"[13123, 13970, 15154]","[u'up', u'up', u'right']",train_inspect_cost,"[u'0', u'1', u'2', u'3']","{u'mouseover': {u'state': {u'target': [], u'time': []}, u'edge': {u'target': [], u'time': []}}, u'click': {u'state': {u'target': [u'5', u'9', u'1'], u'time': [11007, 11731, 12314]}, u'edge': {u'target': [], u'time': []}}, u'mouseout': {u'state': {u'target': [], u'time': []}, u'edge': {u'target': [], u'time': []}}}","[48, 8, 2]","[13121, 328, 626]",55.0,"[None, None, None]","[u'', 48, 8, 2, 4, -48, -8, -2, -2, 48, -4, 2, 4]",182825,20.0,16290.0,5.21456941459e+18,mouselab-mdp,0
"[48018, 49170, 49890]","[u'left', u'left', u'up']",train_inspect_cost,"[u'0', u'9', u'10', u'11']","{u'mouseover': {u'state': {u'target': [], u'time': []}, u'edge': {u'target': [], u'time': []}}, u'click': {u'state': {u'target': [u'9'], u'time': [46517]}, u'edge': {u'target': [], u'time': []}}, u'mouseout': {u'state': {u'target': [], u'time': []}, u'edge': {u'target': [], u'time': []}}}","[24, -8, -4]","[48017, 639, 210]",11.0,"[None, None, None]","[u'', 24, -8, 2, 4, 48, 4, 4, 4, 24, -8, -4, -4]",235530,21.0,51635.0,1.49590081745e+18,mouselab-mdp,0
"[439, 1238, 1942]","[u'left', u'left', u'down']",train_inspect_cost,"[u'0', u'9', u'10', u'12']","{u'mouseover': {u'state': {u'target': [], u'time': []}, u'edge': {u'target': [], u'time': []}}, u'click': {u'state': {u'target': [], u'time': []}, u'edge': {u'target': [], u'time': []}}, u'mouseout': {u'state': {u'target': [], u'time': []}, u'edge': {u'target': [], u'time': []}}}","[-24, -4, -4]","[437, 289, 192]",-32.0,"[None, None, None]","[u'', -24, -8, 2, 2, 24, -4, 2, -4, -24, -4, -2, -4]",239738,22.0,3094.0,8.41111812433e+18,mouselab-mdp,0
"[383, 1213, 1901]","[u'right', u'right', u'up']",train_inspect_cost,"[u'0', u'5', u'6', u'7']","{u'mouseover': {u'state': {u'target': [], u'time': []}, u'edge': {u'target': [], u'time': []}}, u'click': {u'state': {u'target': [], u'time': []}, u'edge': {u'target': [], u'time': []}}, u'mouseout': {u'state': {u'target': [], u'time': []}, u'edge': {u'target': [], u'time': []}}}","[-48, 8, 4]","[381, 315, 119]",-36.0,"[None, None, None]","[u'', -24, 4, 2, 2, -48, 8, 4, 2, -48, 8, -4, -2]",253338,23.0,12492.0,-1.10181998133e+17,mouselab-mdp,0
"[448, 1472, 2208]","[u'left', u'left', u'up']",train_inspect_cost,"[u'0', u'9', u'10', u'11']","{u'mouseover': {u'state': {u'target': [], u'time': []}, u'edge': {u'target': [], u'time': []}}, u'click': {u'state': {u'target': [], u'time': []}, u'edge': {u'target': [], u'time': []}}, u'mouseout': {u'state': {u'target': [], u'time': []}, u'edge': {u'target': [], u'time': []}}}","[-48, 4, -4]","[447, 502, 225]",-48.0,"[None, None, None]","[u'', 24, -4, -4, 4, -48, -8, -2, -2, -48, 4, -4, 2]",257722,24.0,3280.0,-8.04759660738e+18,mouselab-mdp,0
"[2268, 3116, 3979]","[u'up', u'up', u'right']",train_final,"[u'0', u'1', u'2', u'3']","{u'mouseover': {u'state': {u'target': [], u'time': []}, u'edge': {u'target': [], u'time': []}}, u'click': {u'state': {u'target': [], u'time': []}, u'edge': {u'target': [], u'time': []}}, u'mouseout': {u'state': {u'target': [], u'time': []}, u'edge': {u'target': [], u'time': []}}}","[-48, -8, 4]","[2266, 333, 347]",-52.0,"[None, None, None]","[u'', -48, -8, 4, -4, -24, -8, 4, 2, -24, 8, 2, -2]",269274,25.0,8731.0,4.65301638885e+18,mouselab-mdp,0
"[338, 962, 1618]","[u'up', u'up', u'left']",train_final,"[u'0', u'1', u'2', u'4']","{u'mouseover': {u'state': {u'target': [], u'time': []}, u'edge': {u'target': [], u'time': []}}, u'click': {u'state': {u'target': [], u'time': []}, u'edge': {u'target': [], u'time': []}}, u'mouseout': {u'state': {u'target': [], u'time': []}, u'edge': {u'target': [], u'time': []}}}","[-24, 8, -4]","[337, 114, 135]",-20.0,"[None, None, None]","[u'', -24, 8, 2, -4, -48, 4, -4, -4, -48, 8, 2, 4]",272842,26.0,2482.0,4.35752670399e+18,mouselab-mdp,0
"[1138, 1922, 2530]","[u'right', u'right', u'down']",train_final,"[u'0', u'5', u'6', u'8']","{u'mouseover': {u'state': {u'target': [], u'time': []}, u'edge': {u'target': [], u'time': []}}, u'click': {u'state': {u'target': [], u'time': []}, u'edge': {u'target': [], u'time': []}}, u'mouseout': {u'state': {u'target': [], u'time': []}, u'edge': {u'target': [], u'time': []}}}","[-48, -8, 4]","[1137, 273, 100]",-52.0,"[None, None, None]","[u'', 24, 4, 2, 2, -48, -8, 2, 4, -48, -4, -2, -2]",277579,27.0,3634.0,-6.85617472885e+18,mouselab-mdp,0
"[4914, 5698, 6275]","[u'left', u'left', u'up']",train_final,"[u'0', u'9', u'10', u'11']","{u'mouseover': {u'state': {u'target': [], u'time': []}, u'edge': {u'target': [], u'time': []}}, u'click': {u'state': {u'target': [], u'time': []}, u'edge': {u'target': [], u'time': []}}, u'mouseout': {u'state': {u'target': [], u'time': []}, u'edge': {u'target': [], u'time': []}}}","[-24, 4, -2]","[4913, 209, 64]",-22.0,"[None, None, None]","[u'', -48, -8, -4, -4, -24, -8, -4, 4, -24, 4, -2, -2]",285802,28.0,7138.0,-7.42098709122e+18,mouselab-mdp,0
"[457, 1177, 2201]","[u'right', u'right', u'down']",train_final,"[u'0', u'5', u'6', u'8']","{u'mouseover': {u'state': {u'target': [], u'time': []}, u'edge': {u'target': [], u'time': []}}, u'click': {u'state': {u'target': [], u'time': []}, u'edge': {u'target': [], u'time': []}}, u'mouseout': {u'state': {u'target': [], u'time': []}, u'edge': {u'target': [], u'time': []}}}","[-24, -4, -2]","[456, 199, 493]",-30.0,"[None, None, None]","[u'', -24, -4, 4, 2, -24, -4, -4, -2, -48, -4, 2, 4]",289882,29.0,3001.0,5.55489966612e+18,mouselab-mdp,0
"[160248, 162903, 163991]","[u'right', u'right', u'up']",test,"[u'0', u'5', u'6', u'7']","{u'mouseover': {u'state': {u'target': [], u'time': []}, u'edge': {u'target': [], u'time': []}}, u'click': {u'state': {u'target': [u'1', u'9', u'5'], u'time': [157008, 157984, 159422]}, u'edge': {u'target': [], u'time': []}}, u'mouseout': {u'state': {u'target': [], u'time': []}, u'edge': {u'target': [], u'time': []}}}","[48, 8, 4]","[160247, 2133, 570]",57.0,"[None, None, None]","[u'', -24, -4, 4, -4, 48, 8, 4, 2, 24, -4, -4, -2]",499305,30.0,165494.0,6.04491226741e+18,mouselab-mdp,0
"[3557, 4373, 5173]","[u'right', u'right', u'up']",test,"[u'0', u'5', u'6', u'7']","{u'mouseover': {u'state': {u'target': [], u'time': []}, u'edge': {u'target': [], u'time': []}}, u'click': {u'state': {u'target': [u'5', u'1', u'9'], u'time': [1060, 1737, 2331]}, u'edge': {u'target': [], u'time': []}}, u'mouseout': {u'state': {u'target': [], u'time': []}, u'edge': {u'target': [], u'time': []}}}","[48, -4, 2]","[3556, 299, 281]",43.0,"[None, None, None]","[u'', -48, -4, -2, 4, 48, -4, 2, -4, 24, -4, 4, 2]",509833,31.0,9460.0,-6.24065504107e+18,mouselab-mdp,0
"[5374, 6078, 6734]","[u'up', u'up', u'left']",test,"[u'0', u'1', u'2', u'4']","{u'mouseover': {u'state': {u'target': [], u'time': []}, u'edge': {u'target': [], u'time': []}}, u'click': {u'state': {u'target': [u'5', u'9', u'1'], u'time': [3414, 3956, 4381]}, u'edge': {u'target': [], u'time': []}}, u'mouseout': {u'state': {u'target': [], u'time': []}, u'edge': {u'target': [], u'time': []}}}","[-24, 4, -2]","[5373, 189, 143]",-25.0,"[None, None, None]","[u'', -24, 4, -4, -2, -48, -8, -4, -2, -24, 4, -2, 2]",520073,32.0,9182.0,-3.25822367877e+18,mouselab-mdp,0
"[403, 1122, 1811]","[u'left', u'left', u'down']",test,"[u'0', u'9', u'10', u'12']","{u'mouseover': {u'state': {u'target': [], u'time': []}, u'edge': {u'target': [], u'time': []}}, u'click': {u'state': {u'target': [], u'time': []}, u'edge': {u'target': [], u'time': []}}, u'mouseout': {u'state': {u'target': [], u'time': []}, u'edge': {u'target': [], u'time': []}}}","[24, -8, 4]","[401, 174, 171]",20.0,"[None, None, None]","[u'', -48, -4, -2, 2, -24, 4, 2, 2, 24, -8, 4, 4]",529657,33.0,8514.0,7.88730290572e+16,mouselab-mdp,0
"[410, 1417, 2313]","[u'right', u'right', u'up']",test,"[u'0', u'5', u'6', u'7']","{u'mouseover': {u'state': {u'target': [], u'time': []}, u'edge': {u'target': [], u'time': []}}, u'click': {u'state': {u'target': [], u'time': []}, u'edge': {u'target': [], u'time': []}}, u'mouseout': {u'state': {u'target': [], u'time': []}, u'edge': {u'target': [], u'time': []}}}","[-24, -4, 4]","[408, 488, 384]",-24.0,"[None, None, None]","[u'', 24, -4, -4, -2, -24, -4, 4, -2, 48, 4, 4, -2]",546667,34.0,15931.0,-7.34178568824e+18,mouselab-mdp,0
"[331, 1178, 1850]","[u'up', u'up', u'left']",test,"[u'0', u'1', u'2', u'4']","{u'mouseover': {u'state': {u'target': [], u'time': []}, u'edge': {u'target': [], u'time': []}}, u'click': {u'state': {u'target': [], u'time': []}, u'edge': {u'target': [], u'time': []}}, u'mouseout': {u'state': {u'target': [], u'time': []}, u'edge': {u'target': [], u'time': []}}}","[-48, -4, 2]","[330, 323, 148]",-50.0,"[None, None, None]","[u'', -48, -4, -4, 2, 48, 4, 4, -2, 48, -4, 4, 2]",583804,35.0,36060.0,-4.54306465704e+18,mouselab-mdp,0
"[970, 1786, 2474]","[u'up', u'up', u'left']",test,"[u'0', u'1', u'2', u'4']","{u'mouseover': {u'state': {u'target': [], u'time': []}, u'edge': {u'target': [], u'time': []}}, u'click': {u'state': {u'target': [], u'time': []}, u'edge': {u'target': [], u'time': []}}, u'mouseout': {u'state': {u'target': [], u'time': []}, u'edge': {u'target': [], u'time': []}}}","[24, 4, 2]","[969, 304, 175]",30.0,"[None, None, None]","[u'', 24, 4, -2, 2, 48, -8, -4, 4, 24, 4, -4, -2]",625145,36.0,40265.0,2.35120156539e+18,mouselab-mdp,0
"[2788, 3524, 4228]","[u'left', u'left', u'down']",test,"[u'0', u'9', u'10', u'12']","{u'mouseover': {u'state': {u'target': [], u'time': []}, u'edge': {u'target': [], u'time': []}}, u'click': {u'state': {u'target': [u'5', u'1', u'9'], u'time': [797, 1291, 2003]}, u'edge': {u'target': [], u'time': []}}, u'mouseout': {u'state': {u'target': [], u'time': []}, u'edge': {u'target': [], u'time': []}}}","[-24, 8, 4]","[2787, 210, 181]",-15.0,"[None, None, None]","[u'', -48, 8, 4, -4, -48, -4, -4, 4, -24, 8, 2, 4]",645931,37.0,19733.0,-3.55749592705e+17,mouselab-mdp,0
"[597, 1157, 1684]","[u'up', u'up', u'left']",test,"[u'0', u'1', u'2', u'4']","{u'mouseover': {u'state': {u'target': [], u'time': []}, u'edge': {u'target': [], u'time': []}}, u'click': {u'state': {u'target': [], u'time': []}, u'edge': {u'target': [], u'time': []}}, u'mouseout': {u'state': {u'target': [], u'time': []}, u'edge': {u'target': [], u'time': []}}}","[24, -4, -4]","[596, 44, 5]",16.0,"[None, None, None]","[u'', 24, -4, 4, -4, 24, -8, 2, -2, -48, -8, 2, -2]",671548,38.0,24551.0,-2.89069660345e+18,mouselab-mdp,0
"[561, 1265, 1857]","[u'up', u'up', u'left']",test,"[u'0', u'1', u'2', u'4']","{u'mouseover': {u'state': {u'target': [], u'time': []}, u'edge': {u'target': [], u'time': []}}, u'click': {u'state': {u'target': [], u'time': []}, u'edge': {u'target': [], u'time': []}}, u'mouseout': {u'state': {u'target': [], u'time': []}, u'edge': {u'target': [], u'time': []}}}","[-24, -8, 2]","[560, 188, 80]",-30.0,"[None, None, None]","[u'', -24, -8, 4, 2, 48, 4, 4, 2, 24, -8, -2, -4]",714091,39.0,41473.0,-3.48069097212e+18,mouselab-mdp,0
"[375, 951, 1543]","[u'up', u'up', u'left']",test,"[u'0', u'1', u'2', u'4']","{u'mouseover': {u'state': {u'target': [], u'time': []}, u'edge': {u'target': [], u'time': []}}, u'click': {u'state': {u'target': [], u'time': []}, u'edge': {u'target': [], u'time': []}}, u'mouseout': {u'state': {u'target': [], u'time': []}, u'edge': {u'target': [], u'time': []}}}","[-48, 4, 4]","[374, 63, 72]",-40.0,"[None, None, None]","[u'', -48, 4, 4, 4, -48, -4, 2, 4, -48, -8, -4, -2]",729418,40.0,14262.0,3.5903513614e+18,mouselab-mdp,0
"[1145, 1816, 2424]","[u'left', u'left', u'up']",test,"[u'0', u'9', u'10', u'11']","{u'mouseover': {u'state': {u'target': [], u'time': []}, u'edge': {u'target': [], u'time': []}}, u'click': {u'state': {u'target': [], u'time': []}, u'edge': {u'target': [], u'time': []}}, u'mouseout': {u'state': {u'target': [], u'time': []}, u'edge': {u'target': [], u'time': []}}}","[-24, 4, -2]","[1144, 156, 97]",-22.0,"[None, None, None]","[u'', -24, 8, -2, 4, 24, 4, -4, 4, -24, 4, -2, -4]",738841,41.0,8343.0,-3.44044703415e+18,mouselab-mdp,0
"[1136, 1743, 2383]","[u'up', u'up', u'left']",test,"[u'0', u'1', u'2', u'4']","{u'mouseover': {u'state': {u'target': [], u'time': []}, u'edge': {u'target': [], u'time': []}}, u'click': {u'state': {u'target': [], u'time': []}, u'edge': {u'target': [], u'time': []}}, u'mouseout': {u'state': {u'target': [], u'time': []}, u'edge': {u'target': [], u'time': []}}}","[-24, 8, 4]","[1135, 88, 126]",-12.0,"[None, None, None]","[u'', -24, 8, 2, 4, -24, -8, 4, 4, 24, 4, 2, 4]",764889,42.0,24975.0,-6.71163609944e+18,mouselab-mdp,0
"[624, 1312, 1984]","[u'right', u'right', u'up']",test,"[u'0', u'5', u'6', u'7']","{u'mouseover': {u'state': {u'target': [], u'time': []}, u'edge': {u'target': [], u'time': []}}, u'click': {u'state': {u'target': [], u'time': []}, u'edge': {u'target': [], u'time': []}}, u'mouseout': {u'state': {u'target': [], u'time': []}, u'edge': {u'target': [], u'time': []}}}","[48, 4, 2]","[623, 120, 158]",54.0,"[None, None, None]","[u'', -48, -8, -4, -4, 48, 4, 2, 4, -48, -4, 2, 4]",844297,43.0,78335.0,-4.49278938292e+18,mouselab-mdp,0
"[571, 1402, 2090]","[u'up', u'up', u'left']",test,"[u'0', u'1', u'2', u'4']","{u'mouseover': {u'state': {u'target': [], u'time': []}, u'edge': {u'target': [], u'time': []}}, u'click': {u'state': {u'target': [], u'time': []}, u'edge': {u'target': [], u'time': []}}, u'mouseout': {u'state': {u'target': [], u'time': []}, u'edge': {u'target': [], u'time': []}}}","[48, -8, -2]","[569, 308, 162]",38.0,"[None, None, None]","[u'', 48, -8, -2, -2, -48, 8, -2, 2, -24, -8, -4, -4]",866873,44.0,21498.0,-7.46101378534e+18,mouselab-mdp,0
"[2983, 3591, 4262]","[u'up', u'up', u'left']",test,"[u'0', u'1', u'2', u'4']","{u'mouseover': {u'state': {u'target': [], u'time': []}, u'edge': {u'target': [], u'time': []}}, u'click': {u'state': {u'target': [u'1', u'9', u'5'], u'time': [1414, 1925, 2276]}, u'edge': {u'target': [], u'time': []}}, u'mouseout': {u'state': {u'target': [], u'time': []}, u'edge': {u'target': [], u'time': []}}}","[48, -4, -2]","[2982, 93, 147]",39.0,"[None, None, None]","[u'', 48, -4, 2, -2, -24, -4, -2, -2, 24, -4, 4, 2]",877916,45.0,9960.0,-3.0058176152e+18,mouselab-mdp,0
"[2550, 3314, 4069]","[u'left', u'left', u'up']",test,"[u'0', u'9', u'10', u'11']","{u'mouseover': {u'state': {u'target': [], u'time': []}, u'edge': {u'target': [], u'time': []}}, u'click': {u'state': {u'target': [u'1', u'9', u'5'], u'time': [1070, 1498, 1876]}, u'edge': {u'target': [], u'time': []}}, u'mouseout': {u'state': {u'target': [], u'time': []}, u'edge': {u'target': [], u'time': []}}}","[48, -4, 2]","[2548, 242, 232]",43.0,"[None, None, None]","[u'', -24, -8, 2, 2, -24, -8, 2, -2, 48, -4, 2, -4]",887417,46.0,8421.0,3.33569623558e+14,mouselab-mdp,0
"[2836, 3476, 4276]","[u'up', u'up', u'left']",test,"[u'0', u'1', u'2', u'4']","{u'mouseover': {u'state': {u'target': [], u'time': []}, u'edge': {u'target': [], u'time': []}}, u'click': {u'state': {u'target': [u'1', u'9', u'5'], u'time': [1260, 1571, 2275]}, u'edge': {u'target': [], u'time': []}}, u'mouseout': {u'state': {u'target': [], u'time': []}, u'edge': {u'target': [], u'time': []}}}","[48, -4, 4]","[2835, 126, 276]",45.0,"[None, None, None]","[u'', 48, -4, -4, 4, -48, 8, 4, -2, 24, 4, 2, 4]",897881,47.0,9395.0,-6.89226078903e+18,mouselab-mdp,0
"[2078, 2781, 3565]","[u'left', u'left', u'down']",test,"[u'0', u'9', u'10', u'12']","{u'mouseover': {u'state': {u'target': [], u'time': []}, u'edge': {u'target': [], u'time': []}}, u'click': {u'state': {u'target': [u'1', u'9', u'5'], u'time': [636, 965, 1364]}, u'edge': {u'target': [], u'time': []}}, u'mouseout': {u'state': {u'target': [], u'time': []}, u'edge': {u'target': [], u'time': []}}}","[48, 4, 2]","[2076, 186, 274]",51.0,"[None, None, None]","[u'', 24, 8, 4, 4, -48, -8, 2, 4, 48, 4, 4, 2]",909130,48.0,10158.0,5.99255420902e+18,mouselab-mdp,0
"[2708, 3364, 4168]","[u'up', u'up', u'left']",test,"[u'0', u'1', u'2', u'4']","{u'mouseover': {u'state': {u'target': [], u'time': []}, u'edge': {u'target': [], u'time': []}}, u'click': {u'state': {u'target': [u'9', u'1', u'5'], u'time': [581, 928, 1586]}, u'edge': {u'target': [], u'time': []}}, u'mouseout': {u'state': {u'target': [], u'time': []}, u'edge': {u'target': [], u'time': []}}}","[48, 8, -4]","[2706, 145, 245]",49.0,"[None, None, None]","[u'', 48, 8, -4, -4, -48, 8, -4, -2, 48, 4, 2, -2]",918873,49.0,8659.0,1.11563526089e+18,mouselab-mdp,0
"[1611, 2411, 3212]","[u'up', u'up', u'right']",test,"[u'0', u'1', u'2', u'3']","{u'mouseover': {u'state': {u'target': [], u'time': []}, u'edge': {u'target': [], u'time': []}}, u'click': {u'state': {u'target': [u'1', u'9'], u'time': [643, 964]}, u'edge': {u'target': [], u'time': []}}, u'mouseout': {u'state': {u'target': [], u'time': []}, u'edge': {u'target': [], u'time': []}}}","[48, 8, 2]","[1610, 255, 279]",56.0,"[None, None, None]","[u'', 48, 8, 2, 2, -48, -4, -2, -4, 24, -4, 4, 4]",928457,50.0,8507.0,3.67478526982e+18,mouselab-mdp,0
"[1954, 2753, 3552]","[u'left', u'left', u'down']",test,"[u'0', u'9', u'10', u'12']","{u'mouseover': {u'state': {u'target': [], u'time': []}, u'edge': {u'target': [], u'time': []}}, u'click': {u'state': {u'target': [u'1', u'9', u'5'], u'time': [441, 761, 1135]}, u'edge': {u'target': [], u'time': []}}, u'mouseout': {u'state': {u'target': [], u'time': []}, u'edge': {u'target': [], u'time': []}}}","[48, 4, -2]","[1952, 280, 283]",47.0,"[None, None, None]","[u'', -48, 8, -2, -4, 48, -4, 4, 2, 48, 4, 4, -2]",940409,51.0,10864.0,4.41329592241e+18,mouselab-mdp,0
"[1942, 2822, 3654]","[u'right', u'right', u'down']",test,"[u'0', u'5', u'6', u'8']","{u'mouseover': {u'state': {u'target': [], u'time': []}, u'edge': {u'target': [], u'time': []}}, u'click': {u'state': {u'target': [u'9', u'1', u'5'], u'time': [625, 891, 1222]}, u'edge': {u'target': [], u'time': []}}, u'mouseout': {u'state': {u'target': [], u'time': []}, u'edge': {u'target': [], u'time': []}}}","[48, -4, 2]","[1940, 364, 315]",43.0,"[None, None, None]","[u'', 24, -8, 4, -4, 48, -4, 4, 2, 24, -8, -4, -4]",956633,52.0,15157.0,-1.43587821135e+18,mouselab-mdp,0
"[2202, 2986, 3706]","[u'up', u'up', u'left']",test,"[u'0', u'1', u'2', u'4']","{u'mouseover': {u'state': {u'target': [], u'time': []}, u'edge': {u'target': [], u'time': []}}, u'click': {u'state': {u'target': [u'1', u'9', u'5'], u'time': [550, 899, 1569]}, u'edge': {u'target': [], u'time': []}}, u'mouseout': {u'state': {u'target': [], u'time': []}, u'edge': {u'target': [], u'time': []}}}","[48, 4, 2]","[2201, 266, 202]",51.0,"[None, None, None]","[u'', 48, 4, 4, 2, 48, 8, -2, -4, 24, -4, -4, 2]",969915,53.0,12202.0,-2.99412465539e+18,mouselab-mdp,0
"[2382, 3166, 14207]","[u'left', u'left', u'up']",test,"[u'0', u'9', u'10', u'11']","{u'mouseover': {u'state': {u'target': [], u'time': []}, u'edge': {u'target': [], u'time': []}}, u'click': {u'state': {u'target': [u'2', u'1', u'9', u'5'], u'time': [519, 828, 1339, 1733]}, u'edge': {u'target': [], u'time': []}}, u'mouseout': {u'state': {u'target': [], u'time': []}, u'edge': {u'target': [], u'time': []}}}","[48, 4, 2]","[2381, 271, 10528]",50.0,"[None, None, None]","[u'', 24, 4, -2, 4, 24, -8, -2, 4, 48, 4, 2, 2]",987002,54.0,15998.0,-8.8753766642e+18,mouselab-mdp,0
"[13410, 14176, 14993]","[u'up', u'up', u'left']",test,"[u'0', u'1', u'2', u'4']","{u'mouseover': {u'state': {u'target': [], u'time': []}, u'edge': {u'target': [], u'time': []}}, u'click': {u'state': {u'target': [], u'time': []}, u'edge': {u'target': [], u'time': []}}, u'mouseout': {u'state': {u'target': [], u'time': []}, u'edge': {u'target': [], u'time': []}}}","[-48, 4, 4]","[13409, 252, 304]",-40.0,"[None, None, None]","[u'', -48, 4, -2, 4, -48, -8, -2, 4, -48, 8, -2, -4]",1004612,55.0,16538.0,2.04519373683e+18,mouselab-mdp,0
"[3018, 3834, 4634]","[u'right', u'right', u'down']",test,"[u'0', u'5', u'6', u'8']","{u'mouseover': {u'state': {u'target': [], u'time': []}, u'edge': {u'target': [], u'time': []}}, u'click': {u'state': {u'target': [u'1', u'9', u'5'], u'time': [1394, 1772, 2338]}, u'edge': {u'target': [], u'time': []}}, u'mouseout': {u'state': {u'target': [], u'time': []}, u'edge': {u'target': [], u'time': []}}}","[24, -8, 4]","[3017, 301, 281]",17.0,"[None, None, None]","[u'', -48, -8, -4, 2, 24, -8, -4, 4, 24, -8, -2, 2]",1015227,56.0,9515.0,-4.85652442179e+18,mouselab-mdp,0
"[2181, 2981, 3733]","[u'left', u'left', u'down']",test,"[u'0', u'9', u'10', u'12']","{u'mouseover': {u'state': {u'target': [], u'time': []}, u'edge': {u'target': [], u'time': []}}, u'click': {u'state': {u'target': [u'5', u'1', u'9'], u'time': [461, 804, 1155]}, u'edge': {u'target': [], u'time': []}}, u'mouseout': {u'state': {u'target': [], u'time': []}, u'edge': {u'target': [], u'time': []}}}","[24, -8, -4]","[2180, 278, 230]",9.0,"[None, None, None]","[u'', -48, 8, -4, 4, 24, -4, 4, -4, 24, -8, 2, -4]",1026634,57.0,10324.0,8.55918488371e+18,mouselab-mdp,0
"[2263, 3095, 3815]","[u'right', u'right', u'down']",test,"[u'0', u'5', u'6', u'8']","{u'mouseover': {u'state': {u'target': [], u'time': []}, u'edge': {u'target': [], u'time': []}}, u'click': {u'state': {u'target': [u'9', u'5', u'1'], u'time': [880, 1318, 1646]}, u'edge': {u'target': [], u'time': []}}, u'mouseout': {u'state': {u'target': [], u'time': []}, u'edge': {u'target': [], u'time': []}}}","[48, 4, 2]","[2262, 315, 200]",51.0,"[None, None, None]","[u'', 24, -8, -2, 4, 48, 4, -4, 2, 24, -4, -2, 2]",1036730,58.0,9015.0,2.19879112651e+18,mouselab-mdp,0
"[4816, 5583, 6302]","[u'left', u'left', u'down']",test,"[u'0', u'9', u'10', u'12']","{u'mouseover': {u'state': {u'target': [], u'time': []}, u'edge': {u'target': [], u'time': []}}, u'click': {u'state': {u'target': [u'5', u'1', u'9'], u'time': [2623, 3022, 3902]}, u'edge': {u'target': [], u'time': []}}, u'mouseout': {u'state': {u'target': [], u'time': []}, u'edge': {u'target': [], u'time': []}}}","[-24, -8, -2]","[4814, 258, 209]",-37.0,"[None, None, None]","[u'', -24, 4, -2, 4, -24, 8, 4, 4, -24, -8, -4, -2]",1047195,59.0,9377.0,2.30326182839e+18,mouselab-mdp,0
"[14105, 16463, 17151]","[u'left', u'left', u'up']",train_basic,"[u'0', u'9', u'10', u'11']","{u'mouseover': {u'state': {u'target': [], u'time': []}, u'edge': {u'target': [], u'time': []}}, u'click': {u'state': {u'target': [], u'time': []}, u'edge': {u'target': [], u'time': []}}, u'mouseout': {u'state': {u'target': [], u'time': []}, u'edge': {u'target': [], u'time': []}}}","[48, -4, 2]","[14102, 1843, 181]",46.0,"[None, None, None]","[u'', -24, -8, 2, 2, -24, -8, 2, -2, 48, -4, 2, -4]",19792,0.0,19687.0,3.33569623558e+14,mouselab-mdp,1
"[11606, 12277, 12981]","[u'left', u'left', u'up']",train_basic,"[u'0', u'9', u'10', u'11']","{u'mouseover': {u'state': {u'target': [], u'time': []}, u'edge': {u'target': [], u'time': []}}, u'click': {u'state': {u'target': [], u'time': []}, u'edge': {u'target': [], u'time': []}}, u'mouseout': {u'state': {u'target': [], u'time': []}, u'edge': {u'target': [], u'time': []}}}","[-24, 8, 2]","[11605, 162, 201]",-14.0,"[None, None, None]","[u'', -48, -8, 4, -4, -24, -8, 4, 2, -24, 8, 2, -2]",37735,1.0,16877.0,4.65301638885e+18,mouselab-mdp,1
"[3039, 4439, 5047]","[u'right', u'right', u'up']",train_basic,"[u'0', u'5', u'6', u'7']","{u'mouseover': {u'state': {u'target': [], u'time': []}, u'edge': {u'target': [], u'time': []}}, u'click': {u'state': {u'target': [], u'time': []}, u'edge': {u'target': [], u'time': []}}, u'mouseout': {u'state': {u'target': [], u'time': []}, u'edge': {u'target': [], u'time': []}}}","[48, -4, 4]","[3038, 911, 102]",48.0,"[None, None, None]","[u'', 24, -8, 4, -4, 48, -4, 4, 2, 24, -8, -4, -4]",45599,2.0,6806.0,-1.43587821135e+18,mouselab-mdp,1
"[3449, 4017, 4593]","[u'up', u'up', u'right']",train_basic,"[u'0', u'1', u'2', u'3']","{u'mouseover': {u'state': {u'target': [], u'time': []}, u'edge': {u'target': [], u'time': []}}, u'click': {u'state': {u'target': [], u'time': []}, u'edge': {u'target': [], u'time': []}}, u'mouseout': {u'state': {u'target': [], u'time': []}, u'edge': {u'target': [], u'time': []}}}","[48, 8, 4]","[3448, 48, 75]",60.0,"[None, None, None]","[u'', 48, 8, 4, 4, -48, -8, -4, 2, 48, 8, 2, 2]",52848,3.0,6178.0,-3.73598771706e+17,mouselab-mdp,1
"[3311, 3943, 4542]","[u'left', u'left', u'down']",train_basic,"[u'0', u'9', u'10', u'12']","{u'mouseover': {u'state': {u'target': [], u'time': []}, u'edge': {u'target': [], u'time': []}}, u'click': {u'state': {u'target': [], u'time': []}, u'edge': {u'target': [], u'time': []}}, u'mouseout': {u'state': {u'target': [], u'time': []}, u'edge': {u'target': [], u'time': []}}}","[24, 4, 4]","[3311, 127, 93]",32.0,"[None, None, None]","[u'', -24, 8, 2, 4, -24, -8, 4, 4, 24, 4, 2, 4]",59624,4.0,5703.0,-6.71163609944e+18,mouselab-mdp,1
"[14144, 14728, 15360]","[u'up', u'up', u'right']",train_basic2,"[u'0', u'1', u'2', u'3']","{u'mouseover': {u'state': {u'target': [], u'time': []}, u'edge': {u'target': [], u'time': []}}, u'click': {u'state': {u'target': [], u'time': []}, u'edge': {u'target': [], u'time': []}}, u'mouseout': {u'state': {u'target': [], u'time': []}, u'edge': {u'target': [], u'time': []}}}","[24, 8, -4]","[14143, 78, 125]",28.0,"[None, None, None]","[u'', 24, 8, -4, -4, -48, 8, 2, 2, -24, 8, -2, 4]",79687,5.0,16567.0,6.82029765092e+18,mouselab-mdp,1
"[1537, 2088, 2697]","[u'right', u'right', u'up']",train_basic2,"[u'0', u'5', u'6', u'7']","{u'mouseover': {u'state': {u'target': [], u'time': []}, u'edge': {u'target': [], u'time': []}}, u'click': {u'state': {u'target': [], u'time': []}, u'edge': {u'target': [], u'time': []}}, u'mouseout': {u'state': {u'target': [], u'time': []}, u'edge': {u'target': [], u'time': []}}}","[48, 8, 4]","[1536, 44, 87]",60.0,"[None, None, None]","[u'', -24, -8, -2, 4, 48, 8, 4, -4, -48, -8, -2, -4]",84183,6.0,3440.0,7.15258299075e+18,mouselab-mdp,1
"[4666, 5217, 5777]","[u'left', u'left', u'down']",train_basic2,"[u'0', u'9', u'10', u'12']","{u'mouseover': {u'state': {u'target': [], u'time': []}, u'edge': {u'target': [], u'time': []}}, u'click': {u'state': {u'target': [], u'time': []}, u'edge': {u'target': [], u'time': []}}, u'mouseout': {u'state': {u'target': [], u'time': []}, u'edge': {u'target': [], u'time': []}}}","[-24, -8, 4]","[4665, 43, 55]",-28.0,"[None, None, None]","[u'', -48, -4, 4, -2, -48, 4, -4, 4, -24, -8, 2, 4]",92151,7.0,6905.0,2.63443329641e+18,mouselab-mdp,1
"[3233, 3856, 4609]","[u'up', u'up', u'right']",train_basic2,"[u'0', u'1', u'2', u'3']","{u'mouseover': {u'state': {u'target': [], u'time': []}, u'edge': {u'target': [], u'time': []}}, u'click': {u'state': {u'target': [], u'time': []}, u'edge': {u'target': [], u'time': []}}, u'mouseout': {u'state': {u'target': [], u'time': []}, u'edge': {u'target': [], u'time': []}}}","[-24, 4, 4]","[3232, 110, 262]",-16.0,"[None, None, None]","[u'', -24, 4, 4, -4, 48, -8, 4, 2, -24, -8, 2, 4]",98768,8.0,5545.0,-3.44355803009e+18,mouselab-mdp,1
"[1080, 1663, 2215]","[u'right', u'right', u'down']",train_basic2,"[u'0', u'5', u'6', u'8']","{u'mouseover': {u'state': {u'target': [], u'time': []}, u'edge': {u'target': [], u'time': []}}, u'click': {u'state': {u'target': [], u'time': []}, u'edge': {u'target': [], u'time': []}}, u'mouseout': {u'state': {u'target': [], u'time': []}, u'edge': {u'target': [], u'time': []}}}","[48, 8, 2]","[1079, 85, 54]",58.0,"[None, None, None]","[u'', -24, 4, 2, 2, 48, 8, -4, 2, -24, 8, -4, -2]",103448,9.0,3624.0,-4.80438429618e+18,mouselab-mdp,1
"[9928, 11112, 12391]","[u'up', u'up', u'left']",train_hidden,"[u'0', u'1', u'2', u'4']","{u'mouseover': {u'state': {u'target': [], u'time': []}, u'edge': {u'target': [], u'time': []}}, u'click': {u'state': {u'target': [], u'time': []}, u'edge': {u'target': [], u'time': []}}, u'mouseout': {u'state': {u'target': [], u'time': []}, u'edge': {u'target': [], u'time': []}}}","[48, 8, 2]","[9926, 669, 766]",58.0,"[None, None, None]","[u'', 48, 8, -2, 2, 48, -4, -2, 2, -48, 4, -2, 4]",120215,10.0,13839.0,-5.53441172203e+18,mouselab-mdp,1
"[463, 1319, 2070]","[u'left', u'left', u'up']",train_hidden,"[u'0', u'9', u'10', u'11']","{u'mouseover': {u'state': {u'target': [], u'time': []}, u'edge': {u'target': [], u'time': []}}, u'click': {u'state': {u'target': [], u'time': []}, u'edge': {u'target': [], u'time': []}}, u'mouseout': {u'state': {u'target': [], u'time': []}, u'edge': {u'target': [], u'time': []}}}","[48, 4, 4]","[462, 348, 234]",56.0,"[None, None, None]","[u'', 24, -4, -4, -2, -24, -4, 4, -2, 48, 4, 4, -2]",124680,11.0,3415.0,-7.34178568824e+18,mouselab-mdp,1
"[468, 1364, 2116]","[u'right', u'right', u'up']",train_hidden,"[u'0', u'5', u'6', u'7']","{u'mouseover': {u'state': {u'target': [], u'time': []}, u'edge': {u'target': [], u'time': []}}, u'click': {u'state': {u'target': [], u'time': []}, u'edge': {u'target': [], u'time': []}}, u'mouseout': {u'state': {u'target': [], u'time': []}, u'edge': {u'target': [], u'time': []}}}","[48, -4, -4]","[466, 387, 239]",40.0,"[None, None, None]","[u'', 48, 4, 4, -2, 48, -4, -4, 4, 24, -8, 4, 2]",128832,12.0,3108.0,-7.36150894527e+18,mouselab-mdp,1
"[820, 1580, 2452]","[u'right', u'right', u'down']",train_hidden,"[u'0', u'5', u'6', u'8']","{u'mouseover': {u'state': {u'target': [], u'time': []}, u'edge': {u'target': [], u'time': []}}, u'click': {u'state': {u'target': [], u'time': []}, u'edge': {u'target': [], u'time': []}}, u'mouseout': {u'state': {u'target': [], u'time': []}, u'edge': {u'target': [], u'time': []}}}","[-24, -4, -2]","[819, 254, 360]",-30.0,"[None, None, None]","[u'', -24, -4, 4, 2, -24, -4, -4, -2, -48, -4, 2, 4]",133287,13.0,3411.0,5.55489966612e+18,mouselab-mdp,1
"[323, 938, 1546]","[u'up', u'up', u'right']",train_hidden,"[u'0', u'1', u'2', u'3']","{u'mouseover': {u'state': {u'target': [], u'time': []}, u'edge': {u'target': [], u'time': []}}, u'click': {u'state': {u'target': [], u'time': []}, u'edge': {u'target': [], u'time': []}}, u'mouseout': {u'state': {u'target': [], u'time': []}, u'edge': {u'target': [], u'time': []}}}","[-24, 4, 2]","[321, 128, 120]",-18.0,"[None, None, None]","[u'', -24, 4, 2, 2, -48, 8, 4, 2, -48, 8, -4, -2]",136887,14.0,2546.0,-1.10181998133e+17,mouselab-mdp,1
"[15536, 16176, 17264]","[u'left', u'left', u'up']",train_inspector,"[u'0', u'9', u'10', u'11']","{u'mouseover': {u'state': {u'target': [], u'time': []}, u'edge': {u'target': [], u'time': []}}, u'click': {u'state': {u'target': [u'1', u'5', u'9'], u'time': [10732, 12194, 12889]}, u'edge': {u'target': [], u'time': []}}, u'mouseout': {u'state': {u'target': [], u'time': []}, u'edge': {u'target': [], u'time': []}}}","[48, -8, 4]","[15535, 139, 593]",44.0,"[None, None, None]","[u'', 24, 4, -4, 2, -48, 8, 2, -4, 48, -8, 4, 2]",159016,15.0,19136.0,6.63672823162e+18,mouselab-mdp,1
"[8401, 9488, 10176]","[u'up', u'up', u'right']",train_inspector,"[u'0', u'1', u'2', u'3']","{u'mouseover': {u'state': {u'target': [], u'time': []}, u'edge': {u'target': [], u'time': []}}, u'click': {u'state': {u'target': [u'1', u'5', u'9', u'11', u'12', u'2'], u'time': [899, 1970, 2586, 4282, 5314, 6387]}, u'edge': {u'target': [], u'time': []}}, u'mouseout': {u'state': {u'target': [], u'time': []}, u'edge': {u'target': [], u'time': []}}}","[48, 4, 4]","[8400, 576, 181]",56.0,"[None, None, None]","[u'', 48, 4, 4, 2, 48, -4, 2, -4, -24, -8, -2, -4]",175768,16.0,15697.0,-6.7376156814e+18,mouselab-mdp,1
"[5212, 6156, 6819]","[u'up', u'up', u'left']",train_inspector,"[u'0', u'1', u'2', u'4']","{u'mouseover': {u'state': {u'target': [], u'time': []}, u'edge': {u'target': [], u'time': []}}, u'click': {u'state': {u'target': [u'9', u'1', u'5'], u'time': [2055, 2799, 3334]}, u'edge': {u'target': [], u'time': []}}, u'mouseout': {u'state': {u'target': [], u'time': []}, u'edge': {u'target': [], u'time': []}}}","[-24, 4, -2]","[5211, 435, 166]",-22.0,"[None, None, None]","[u'', -24, 4, -4, -2, -48, -8, -4, -2, -24, 4, -2, 2]",185416,17.0,8603.0,-3.25822367877e+18,mouselab-mdp,1
"[3418, 4025, 4674]","[u'right', u'right', u'down']",train_inspector,"[u'0', u'5', u'6', u'8']","{u'mouseover': {u'state': {u'target': [], u'time': []}, u'edge': {u'target': [], u'time': []}}, u'click': {u'state': {u'target': [u'1', u'5', u'9'], u'time': [1188, 1627, 2323]}, u'edge': {u'target': [], u'time': []}}, u'mouseout': {u'state': {u'target': [], u'time': []}, u'edge': {u'target': [], u'time': []}}}","[48, 8, -2]","[3417, 112, 129]",54.0,"[None, None, None]","[u'', -48, -4, -2, 4, 48, 8, 2, -2, -24, 8, 2, 4]",192592,18.0,6122.0,-1.36932485089e+17,mouselab-mdp,1
"[4625, 5217, 5872]","[u'up', u'up', u'left']",train_inspector,"[u'0', u'1', u'2', u'4']","{u'mouseover': {u'state': {u'target': [], u'time': []}, u'edge': {u'target': [], u'time': []}}, u'click': {u'state': {u'target': [u'1', u'9', u'5'], u'time': [1538, 2587, 3426]}, u'edge': {u'target': [], u'time': []}}, u'mouseout': {u'state': {u'target': [], u'time': []}, u'edge': {u'target': [], u'time': []}}}","[48, 8, 4]","[4624, 75, 146]",60.0,"[None, None, None]","[u'', 48, 8, 2, 4, -48, 8, -4, -4, -24, -8, 2, -4]",201088,19.0,7448.0,8.29494155133e+18,mouselab-mdp,1
"[12464, 13184, 14248]","[u'left', u'left', u'down']",train_inspect_cost,"[u'0', u'9', u'10', u'12']","{u'mouseover': {u'state': {u'target': [], u'time': []}, u'edge': {u'target': [], u'time': []}}, u'click': {u'state': {u'target': [u'9'], u'time': [10378]}, u'edge': {u'target': [], u'time': []}}, u'mouseout': {u'state': {u'target': [], u'time': []}, u'edge': {u'target': [], u'time': []}}}","[48, -4, -2]","[12462, 232, 544]",41.0,"[None, None, None]","[u'', 48, -4, -4, -4, -48, 8, -4, -2, 48, -4, 4, -2]",219999,20.0,16071.0,3.2746533964e+18,mouselab-mdp,1
"[2567, 3144, 3800]","[u'up', u'up', u'right']",train_inspect_cost,"[u'0', u'1', u'2', u'3']","{u'mouseover': {u'state': {u'target': [], u'time': []}, u'edge': {u'target': [], u'time': []}}, u'click': {u'state': {u'target': [u'1'], u'time': [961]}, u'edge': {u'target': [], u'time': []}}, u'mouseout': {u'state': {u'target': [], u'time': []}, u'edge': {u'target': [], u'time': []}}}","[48, 4, -4]","[2565, 62, 151]",47.0,"[None, None, None]","[u'', 48, 4, -4, 2, -24, 4, 4, -2, 48, 4, -4, 4]",227159,21.0,6095.0,-7.72949551535e+18,mouselab-mdp,1
"[2311, 2894, 3486]","[u'right', u'right', u'up']",train_inspect_cost,"[u'0', u'5', u'6', u'7']","{u'mouseover': {u'state': {u'target': [], u'time': []}, u'edge': {u'target': [], u'time': []}}, u'click': {u'state': {u'target': [u'5'], u'time': [713]}, u'edge': {u'target': [], u'time': []}}, u'mouseout': {u'state': {u'target': [], u'time': []}, u'edge': {u'target': [], u'time': []}}}","[48, -4, 2]","[2310, 74, 83]",45.0,"[None, None, None]","[u'', -48, -4, -2, 4, 48, -4, 2, -4, 24, -4, 4, 2]",233688,22.0,5479.0,-6.24065504107e+18,mouselab-mdp,1
"[5223, 5783, 6440]","[u'left', u'left', u'down']",train_inspect_cost,"[u'0', u'9', u'10', u'12']","{u'mouseover': {u'state': {u'target': [], u'time': []}, u'edge': {u'target': [], u'time': []}}, u'click': {u'state': {u'target': [u'1', u'9'], u'time': [2842, 3505]}, u'edge': {u'target': [], u'time': []}}, u'mouseout': {u'state': {u'target': [], u'time': []}, u'edge': {u'target': [], u'time': []}}}","[48, -8, 2]","[5222, 57, 163]",40.0,"[None, None, None]","[u'', -24, 4, -2, -2, -48, -8, 4, -2, 48, -8, -2, 2]",243623,23.0,8871.0,-4.64203023396e+18,mouselab-mdp,1
"[3822, 4390, 4998]","[u'left', u'left', u'up']",train_inspect_cost,"[u'0', u'9', u'10', u'11']","{u'mouseover': {u'state': {u'target': [], u'time': []}, u'edge': {u'target': [], u'time': []}}, u'click': {u'state': {u'target': [u'9'], u'time': [2217]}, u'edge': {u'target': [], u'time': []}}, u'mouseout': {u'state': {u'target': [], u'time': []}, u'edge': {u'target': [], u'time': []}}}","[48, 4, 4]","[3820, 51, 93]",55.0,"[None, None, None]","[u'', 24, 8, 4, 4, -48, -8, 2, 4, 48, 4, 4, 2]",251255,24.0,6582.0,5.99255420902e+18,mouselab-mdp,1
"[15577, 16129, 16737]","[u'left', u'left', u'up']",train_final,"[u'0', u'9', u'10', u'11']","{u'mouseover': {u'state': {u'target': [], u'time': []}, u'edge': {u'target': [], u'time': []}}, u'click': {u'state': {u'target': [u'9'], u'time': [13843]}, u'edge': {u'target': [], u'time': []}}, u'mouseout': {u'state': {u'target': [], u'time': []}, u'edge': {u'target': [], u'time': []}}}","[48, 4, 2]","[15576, 64, 105]",53.0,"[None, None, None]","[u'', 48, 8, -4, -4, -48, 8, -4, -2, 48, 4, 2, -2]",273711,25.0,19049.0,1.11563526089e+18,mouselab-mdp,1
"[3681, 4290, 4881]","[u'right', u'right', u'up']",train_final,"[u'0', u'5', u'6', u'7']","{u'mouseover': {u'state': {u'target': [], u'time': []}, u'edge': {u'target': [], u'time': []}}, u'click': {u'state': {u'target': [u'1', u'5'], u'time': [778, 2655]}, u'edge': {u'target': [], u'time': []}}, u'mouseout': {u'state': {u'target': [], u'time': []}, u'edge': {u'target': [], u'time': []}}}","[48, -8, 4]","[3680, 104, 96]",42.0,"[None, None, None]","[u'', -24, -4, 4, -2, 48, -8, 4, -4, 24, -8, 2, -4]",281223,26.0,6465.0,-5.60817790703e+18,mouselab-mdp,1
"[3124, 3772, 4652]","[u'left', u'left', u'down']",train_final,"[u'0', u'9', u'10', u'12']","{u'mouseover': {u'state': {u'target': [], u'time': []}, u'edge': {u'target': [], u'time': []}}, u'click': {u'state': {u'target': [u'5', u'1', u'9'], u'time': [583, 1327, 1976]}, u'edge': {u'target': [], u'time': []}}, u'mouseout': {u'state': {u'target': [], u'time': []}, u'edge': {u'target': [], u'time': []}}}","[24, -8, 2]","[3123, 137, 383]",15.0,"[None, None, None]","[u'', -24, -8, -4, 2, -48, -4, -2, -4, 24, -8, 2, 2]",288991,27.0,6716.0,4.39571797799e+18,mouselab-mdp,1
"[3123, 4050, 4866]","[u'up', u'up', u'right']",train_final,"[u'0', u'1', u'2', u'3']","{u'mouseover': {u'state': {u'target': [], u'time': []}, u'edge': {u'target': [], u'time': []}}, u'click': {u'state': {u'target': [u'1'], u'time': [1725]}, u'edge': {u'target': [], u'time': []}}, u'mouseout': {u'state': {u'target': [], u'time': []}, u'edge': {u'target': [], u'time': []}}}","[48, -4, -4]","[3123, 436, 301]",39.0,"[None, None, None]","[u'', 48, -4, -4, -2, 24, 4, 4, -4, -48, 4, 4, -4]",296591,28.0,6546.0,6.76429021649e+18,mouselab-mdp,1
"[2253, 2804, 3444]","[u'left', u'left', u'down']",train_final,"[u'0', u'9', u'10', u'12']","{u'mouseover': {u'state': {u'target': [], u'time': []}, u'edge': {u'target': [], u'time': []}}, u'click': {u'state': {u'target': [u'9'], u'time': [1118]}, u'edge': {u'target': [], u'time': []}}, u'mouseout': {u'state': {u'target': [], u'time': []}, u'edge': {u'target': [], u'time': []}}}","[48, -4, -4]","[2252, 64, 136]",39.0,"[None, None, None]","[u'', -24, 4, -4, -2, -24, 4, 4, -2, 48, -4, 2, -4]",303456,29.0,5820.0,-7.521123155e+18,mouselab-mdp,1
"[5262, 6109, 7590]","[u'up', u'up', u'right']",test,"[u'0', u'1', u'2', u'3']","{u'mouseover': {u'state': {u'target': [], u'time': []}, u'edge': {u'target': [], u'time': []}}, u'click': {u'state': {u'target': [u'1'], u'time': [2775]}, u'edge': {u'target': [], u'time': []}}, u'mouseout': {u'state': {u'target': [], u'time': []}, u'edge': {u'target': [], u'time': []}}}","[48, 8, 2]","[5260, 337, 968]",57.0,"[None, None, None]","[u'', 48, 8, 2, 2, -48, -4, -2, -4, 24, -4, 4, 4]",367687,30.0,10453.0,3.67478526982e+18,mouselab-mdp,1
"[6836, 7461, 8252]","[u'left', u'left', u'up']",test,"[u'0', u'9', u'10', u'11']","{u'mouseover': {u'state': {u'target': [], u'time': []}, u'edge': {u'target': [], u'time': []}}, u'click': {u'state': {u'target': [u'5', u'1', u'9'], u'time': [2286, 3246, 4941]}, u'edge': {u'target': [], u'time': []}}, u'mouseout': {u'state': {u'target': [], u'time': []}, u'edge': {u'target': [], u'time': []}}}","[-48, -8, -4]","[6835, 135, 277]",-63.0,"[None, None, None]","[u'', -48, 4, 4, 4, -48, -4, 2, 4, -48, -8, -4, -2]",378864,31.0,10132.0,3.5903513614e+18,mouselab-mdp,1
"[2911, 3495, 4175]","[u'left', u'left', u'up']",test,"[u'0', u'9', u'10', u'11']","{u'mouseover': {u'state': {u'target': [], u'time': []}, u'edge': {u'target': [], u'time': []}}, u'click': {u'state': {u'target': [u'9'], u'time': [672]}, u'edge': {u'target': [], u'time': []}}, u'mouseout': {u'state': {u'target': [], u'time': []}, u'edge': {u'target': [], u'time': []}}}","[24, 8, -4]","[2910, 77, 173]",27.0,"[None, None, None]","[u'', 24, -4, 4, -2, -24, 4, 4, -4, 24, 8, -4, 2]",389631,32.0,9711.0,-4.61729966413e+18,mouselab-mdp,1
"[2834, 3394, 4530]","[u'up', u'up', u'left']",test,"[u'0', u'1', u'2', u'4']","{u'mouseover': {u'state': {u'target': [], u'time': []}, u'edge': {u'target': [], u'time': []}}, u'click': {u'state': {u'target': [u'9', u'1'], u'time': [692, 1468]}, u'edge': {u'target': [], u'time': []}}, u'mouseout': {u'state': {u'target': [], u'time': []}, u'edge': {u'target': [], u'time': []}}}","[48, -8, -2]","[2833, 48, 618]",36.0,"[None, None, None]","[u'', 48, -8, -2, -2, -48, 8, -2, 2, -24, -8, -4, -4]",401327,33.0,10634.0,-7.46101378534e+18,mouselab-mdp,1
"[6611, 7291, 8299]","[u'left', u'left', u'down']",test,"[u'0', u'9', u'10', u'12']","{u'mouseover': {u'state': {u'target': [], u'time': []}, u'edge': {u'target': [], u'time': []}}, u'click': {u'state': {u'target': [u'5', u'1', u'9'], u'time': [3781, 4614, 5389]}, u'edge': {u'target': [], u'time': []}}, u'mouseout': {u'state': {u'target': [], u'time': []}, u'edge': {u'target': [], u'time': []}}}","[24, -4, 2]","[6610, 184, 508]",19.0,"[None, None, None]","[u'', -48, -4, -2, 2, -48, -8, -4, -4, 24, -4, -2, 2]",412775,34.0,10379.0,5.87648543738e+18,mouselab-mdp,1
"[3682, 4297, 4857]","[u'right', u'right', u'up']",test,"[u'0', u'5', u'6', u'7']","{u'mouseover': {u'state': {u'target': [], u'time': []}, u'edge': {u'target': [], u'time': []}}, u'click': {u'state': {u'target': [u'9', u'5'], u'time': [820, 2179]}, u'edge': {u'target': [], u'time': []}}, u'mouseout': {u'state': {u'target': [], u'time': []}, u'edge': {u'target': [], u'time': []}}}","[24, -8, -4]","[3680, 107, 50]",10.0,"[None, None, None]","[u'', -48, 8, -2, 2, 24, -8, -4, -4, -48, -4, -4, -4]",423055,35.0,9241.0,-7.37508384281e+18,mouselab-mdp,1
"[2332, 3084, 3876]","[u'left', u'left', u'up']",test,"[u'0', u'9', u'10', u'11']","{u'mouseover': {u'state': {u'target': [], u'time': []}, u'edge': {u'target': [], u'time': []}}, u'click': {u'state': {u'target': [u'9'], u'time': [663]}, u'edge': {u'target': [], u'time': []}}, u'mouseout': {u'state': {u'target': [], u'time': []}, u'edge': {u'target': [], u'time': []}}}","[48, 8, -2]","[2331, 261, 289]",53.0,"[None, None, None]","[u'', -48, 8, -4, 2, -24, 4, -4, -4, 48, 8, -2, 2]",433135,36.0,9036.0,-2.3218118651e+18,mouselab-mdp,1
"[3614, 4309, 5069]","[u'left', u'left', u'down']",test,"[u'0', u'9', u'10', u'12']","{u'mouseover': {u'state': {u'target': [], u'time': []}, u'edge': {u'target': [], u'time': []}}, u'click': {u'state': {u'target': [u'5', u'1', u'9'], u'time': [856, 1383, 2294]}, u'edge': {u'target': [], u'time': []}}, u'mouseout': {u'state': {u'target': [], u'time': []}, u'edge': {u'target': [], u'time': []}}}","[48, -4, -4]","[3613, 176, 269]",37.0,"[None, None, None]","[u'', -24, 8, -2, 2, 24, -8, -4, -2, 48, -4, 4, -4]",442559,37.0,8373.0,-3.20007329874e+18,mouselab-mdp,1
"[2094, 2662, 3246]","[u'left', u'left', u'up']",test,"[u'0', u'9', u'10', u'11']","{u'mouseover': {u'state': {u'target': [], u'time': []}, u'edge': {u'target': [], u'time': []}}, u'click': {u'state': {u'target': [u'9'], u'time': [745]}, u'edge': {u'target': [], u'time': []}}, u'mouseout': {u'state': {u'target': [], u'time': []}, u'edge': {u'target': [], u'time': []}}}","[24, -8, 2]","[2093, 52, 70]",17.0,"[None, None, None]","[u'', -48, 8, -4, 4, 24, -4, 4, -4, 24, -8, 2, -4]",451895,38.0,8286.0,8.55918488371e+18,mouselab-mdp,1
"[5614, 6198, 6774]","[u'left', u'left', u'down']",test,"[u'0', u'9', u'10', u'12']","{u'mouseover': {u'state': {u'target': [], u'time': []}, u'edge': {u'target': [], u'time': []}}, u'click': {u'state': {u'target': [u'9'], u'time': [3688]}, u'edge': {u'target': [], u'time': []}}, u'mouseout': {u'state': {u'target': [], u'time': []}, u'edge': {u'target': [], u'time': []}}}","[48, -8, 4]","[5613, 67, 59]",43.0,"[None, None, None]","[u'', 48, -4, 2, 2, 48, 4, 4, -4, 48, -8, -2, 4]",462351,39.0,9414.0,8.523654687e+18,mouselab-mdp,1
"[6980, 13362, 14218]","[u'up', u'up', u'left']",test,"[u'0', u'1', u'2', u'4']","{u'mouseover': {u'state': {u'target': [], u'time': []}, u'edge': {u'target': [], u'time': []}}, u'click': {u'state': {u'target': [], u'time': []}, u'edge': {u'target': [], u'time': []}}, u'mouseout': {u'state': {u'target': [], u'time': []}, u'edge': {u'target': [], u'time': []}}}","[-24, 4, 2]","[6978, 5865, 340]",-18.0,"[None, None, None]","[u'', -24, 4, -2, 2, -48, 8, -2, -4, -48, -8, 2, 2]",479687,40.0,16298.0,3.17444220569e+18,mouselab-mdp,1
"[3103, 3879, 4582]","[u'right', u'right', u'up']",test,"[u'0', u'5', u'6', u'7']","{u'mouseover': {u'state': {u'target': [], u'time': []}, u'edge': {u'target': [], u'time': []}}, u'click': {u'state': {u'target': [u'5'], u'time': [736]}, u'edge': {u'target': [], u'time': []}}, u'mouseout': {u'state': {u'target': [], u'time': []}, u'edge': {u'target': [], u'time': []}}}","[24, -8, -4]","[3102, 271, 210]",11.0,"[None, None, None]","[u'', -48, -8, -4, 2, 24, -8, -4, 4, 24, -8, -2, 2]",490048,41.0,9320.0,-4.85652442179e+18,mouselab-mdp,1
"[4136, 4688, 5320]","[u'left', u'left', u'down']",test,"[u'0', u'9', u'10', u'12']","{u'mouseover': {u'state': {u'target': [], u'time': []}, u'edge': {u'target': [], u'time': []}}, u'click': {u'state': {u'target': [u'9'], u'time': [2476]}, u'edge': {u'target': [], u'time': []}}, u'mouseout': {u'state': {u'target': [], u'time': []}, u'edge': {u'target': [], u'time': []}}}","[24, -8, -4]","[4134, 33, 107]",11.0,"[None, None, None]","[u'', -24, -8, 4, 2, 48, 4, 4, 2, 24, -8, -2, -4]",499935,42.0,8848.0,-3.48069097212e+18,mouselab-mdp,1
"[2382, 3110, 4190]","[u'right', u'right', u'down']",test,"[u'0', u'5', u'6', u'8']","{u'mouseover': {u'state': {u'target': [], u'time': []}, u'edge': {u'target': [], u'time': []}}, u'click': {u'state': {u'target': [u'5'], u'time': [1346]}, u'edge': {u'target': [], u'time': []}}, u'mouseout': {u'state': {u'target': [], u'time': []}, u'edge': {u'target': [], u'time': []}}}","[48, 4, -4]","[2382, 229, 590]",47.0,"[None, None, None]","[u'', -48, 4, -4, -2, 48, 4, 2, -4, -24, 4, 4, -4]",508415,43.0,7430.0,-4.59762852137e+18,mouselab-mdp,1
"[6396, 7124, 7724]","[u'right', u'right', u'up']",test,"[u'0', u'5', u'6', u'7']","{u'mouseover': {u'state': {u'target': [], u'time': []}, u'edge': {u'target': [], u'time': []}}, u'click': {u'state': {u'target': [u'1', u'5'], u'time': [3713, 5421]}, u'edge': {u'target': [], u'time': []}}, u'mouseout': {u'state': {u'target': [], u'time': []}, u'edge': {u'target': [], u'time': []}}}","[24, -4, 4]","[6395, 217, 82]",22.0,"[None, None, None]","[u'', -24, 8, -2, 4, 24, -4, 4, 2, -24, 8, -2, -2]",519271,44.0,9812.0,5.22633281768e+18,mouselab-mdp,1
"[3169, 3697, 4281]","[u'left', u'left', u'up']",test,"[u'0', u'9', u'10', u'11']","{u'mouseover': {u'state': {u'target': [], u'time': []}, u'edge': {u'target': [], u'time': []}}, u'click': {u'state': {u'target': [u'9'], u'time': [1714]}, u'edge': {u'target': [], u'time': []}}, u'mouseout': {u'state': {u'target': [], u'time': []}, u'edge': {u'target': [], u'time': []}}}","[48, -8, 2]","[3168, 33, 66]",41.0,"[None, None, None]","[u'', -24, 4, -2, 4, -24, 4, -2, 4, 48, -8, 2, 4]",529343,45.0,9025.0,-7.49607252303e+18,mouselab-mdp,1
"[3779, 4338, 4963]","[u'left', u'left', u'down']",test,"[u'0', u'9', u'10', u'12']","{u'mouseover': {u'state': {u'target': [], u'time': []}, u'edge': {u'target': [], u'time': []}}, u'click': {u'state': {u'target': [u'1', u'5', u'9'], u'time': [1007, 1884, 2686]}, u'edge': {u'target': [], u'time': []}}, u'mouseout': {u'state': {u'target': [], u'time': []}, u'edge': {u'target': [], u'time': []}}}","[24, -4, 4]","[3778, 53, 111]",21.0,"[None, None, None]","[u'', -24, 8, 2, 2, -24, 4, -2, -4, 24, -4, 2, 4]",541590,46.0,11194.0,7.57702505613e+18,mouselab-mdp,1
"[4432, 5175, 6191]","[u'right', u'right', u'up']",test,"[u'0', u'5', u'6', u'7']","{u'mouseover': {u'state': {u'target': [], u'time': []}, u'edge': {u'target': [], u'time': []}}, u'click': {u'state': {u'target': [u'1', u'5'], u'time': [2130, 2881]}, u'edge': {u'target': [], u'time': []}}, u'mouseout': {u'state': {u'target': [], u'time': []}, u'edge': {u'target': [], u'time': []}}}","[48, 4, 2]","[4431, 235, 499]",52.0,"[None, None, None]","[u'', -48, -8, -4, -4, 48, 4, 2, 4, -48, -4, 2, 4]",551198,47.0,8558.0,-4.49278938292e+18,mouselab-mdp,1
"[5465, 6329, 7264]","[u'left', u'left', u'down']",test,"[u'0', u'9', u'10', u'12']","{u'mouseover': {u'state': {u'target': [], u'time': []}, u'edge': {u'target': [], u'time': []}}, u'click': {u'state': {u'target': [u'9'], u'time': [3243]}, u'edge': {u'target': [], u'time': []}}, u'mouseout': {u'state': {u'target': [], u'time': []}, u'edge': {u'target': [], u'time': []}}}","[48, -4, 4]","[5464, 354, 422]",47.0,"[None, None, None]","[u'', 48, 8, 2, 4, -48, -8, -2, -2, 48, -4, 2, 4]",562039,48.0,9801.0,5.21456941459e+18,mouselab-mdp,1
"[3649, 4249, 4800]","[u'right', u'right', u'up']",test,"[u'0', u'5', u'6', u'7']","{u'mouseover': {u'state': {u'target': [], u'time': []}, u'edge': {u'target': [], u'time': []}}, u'click': {u'state': {u'target': [u'1', u'5'], u'time': [1316, 2059]}, u'edge': {u'target': [], u'time': []}}, u'mouseout': {u'state': {u'target': [], u'time': []}, u'edge': {u'target': [], u'time': []}}}","[24, 4, -4]","[3648, 88, 40]",22.0,"[None, None, None]","[u'', -24, 8, -2, 4, 24, 4, -4, 2, 48, -4, 4, 4]",572543,49.0,9457.0,-8.94225075726e+18,mouselab-mdp,1
"[4203, 4770, 5393]","[u'right', u'right', u'down']",test,"[u'0', u'5', u'6', u'8']","{u'mouseover': {u'state': {u'target': [], u'time': []}, u'edge': {u'target': [], u'time': []}}, u'click': {u'state': {u'target': [u'9', u'5'], u'time': [1333, 3036]}, u'edge': {u'target': [], u'time': []}}, u'mouseout': {u'state': {u'target': [], u'time': []}, u'edge': {u'target': [], u'time': []}}}","[24, 4, 4]","[4202, 71, 111]",30.0,"[None, None, None]","[u'', -24, 8, -2, 4, 24, 4, -4, 4, -24, 4, -2, -4]",581943,50.0,8346.0,-3.44044703415e+18,mouselab-mdp,1
"[4705, 5321, 6281]","[u'left', u'left', u'up']",test,"[u'0', u'9', u'10', u'11']","{u'mouseover': {u'state': {u'target': [], u'time': []}, u'edge': {u'target': [], u'time': []}}, u'click': {u'state': {u'target': [u'1', u'5', u'9'], u'time': [1019, 2258, 3354]}, u'edge': {u'target': [], u'time': []}}, u'mouseout': {u'state': {u'target': [], u'time': []}, u'edge': {u'target': [], u'time': []}}}","[-24, 8, 2]","[4704, 100, 458]",-17.0,"[None, None, None]","[u'', -48, 8, 4, -4, -48, -4, -4, 4, -24, 8, 2, 4]",591702,51.0,8712.0,-3.55749592705e+17,mouselab-mdp,1
"[3284, 3868, 4450]","[u'right', u'right', u'up']",test,"[u'0', u'5', u'6', u'7']","{u'mouseover': {u'state': {u'target': [], u'time': []}, u'edge': {u'target': [], u'time': []}}, u'click': {u'state': {u'target': [u'1', u'5'], u'time': [1361, 2053]}, u'edge': {u'target': [], u'time': []}}, u'mouseout': {u'state': {u'target': [], u'time': []}, u'edge': {u'target': [], u'time': []}}}","[24, -4, 2]","[3282, 79, 76]",20.0,"[None, None, None]","[u'', -24, -8, 2, 2, 24, -4, 2, -4, -24, -4, -2, -4]",602503,52.0,9748.0,8.41111812433e+18,mouselab-mdp,1
"[5752, 6321, 6969]","[u'up', u'up', u'left']",test,"[u'0', u'1', u'2', u'4']","{u'mouseover': {u'state': {u'target': [], u'time': []}, u'edge': {u'target': [], u'time': []}}, u'click': {u'state': {u'target': [u'5', u'1', u'9'], u'time': [1277, 3282, 4042]}, u'edge': {u'target': [], u'time': []}}, u'mouseout': {u'state': {u'target': [], u'time': []}, u'edge': {u'target': [], u'time': []}}}","[-24, 8, -2]","[5751, 68, 132]",-21.0,"[None, None, None]","[u'', -24, 8, 2, -2, -48, -4, 2, -2, -24, -4, 4, -2]",612696,53.0,9154.0,-2.90483105632e+18,mouselab-mdp,1
"[3348, 4548, 5531]","[u'right', u'right', u'down']",test,"[u'0', u'5', u'6', u'8']","{u'mouseover': {u'state': {u'target': [], u'time': []}, u'edge': {u'target': [], u'time': []}}, u'click': {u'state': {u'target': [u'5'], u'time': [2166]}, u'edge': {u'target': [], u'time': []}}, u'mouseout': {u'state': {u'target': [], u'time': []}, u'edge': {u'target': [], u'time': []}}}","[24, -8, 4]","[3347, 693, 476]",19.0,"[None, None, None]","[u'', -24, -8, -4, -2, 24, -8, -4, 4, -24, 4, -4, -4]",622792,54.0,9053.0,1.22797275664e+18,mouselab-mdp,1
"[4029, 4540, 5149]","[u'up', u'up', u'left']",test,"[u'0', u'1', u'2', u'4']","{u'mouseover': {u'state': {u'target': [], u'time': []}, u'edge': {u'target': [], u'time': []}}, u'click': {u'state': {u'target': [u'1'], u'time': [2208]}, u'edge': {u'target': [], u'time': []}}, u'mouseout': {u'state': {u'target': [], u'time': []}, u'edge': {u'target': [], u'time': []}}}","[24, -4, -2]","[4028, 22, 97]",17.0,"[None, None, None]","[u'', 24, -4, -2, -2, -48, 4, 2, -4, 48, 8, 4, 4]",631951,55.0,8109.0,2.02316419824e+18,mouselab-mdp,1
"[2804, 3404, 4460]","[u'left', u'left', u'down']",test,"[u'0', u'9', u'10', u'12']","{u'mouseover': {u'state': {u'target': [], u'time': []}, u'edge': {u'target': [], u'time': []}}, u'click': {u'state': {u'target': [u'9'], u'time': [1414]}, u'edge': {u'target': [], u'time': []}}, u'mouseout': {u'state': {u'target': [], u'time': []}, u'edge': {u'target': [], u'time': []}}}","[48, 4, 2]","[2802, 88, 546]",53.0,"[None, None, None]","[u'', 24, 4, -2, 4, 24, -8, -2, 4, 48, 4, 2, 2]",641478,56.0,8483.0,-8.8753766642e+18,mouselab-mdp,1
"[2730, 3314, 4338]","[u'up', u'up', u'left']",test,"[u'0', u'1', u'2', u'4']","{u'mouseover': {u'state': {u'target': [], u'time': []}, u'edge': {u'target': [], u'time': []}}, u'click': {u'state': {u'target': [u'1'], u'time': [1245]}, u'edge': {u'target': [], u'time': []}}, u'mouseout': {u'state': {u'target': [], u'time': []}, u'edge': {u'target': [], u'time': []}}}","[24, 4, 4]","[2729, 69, 512]",31.0,"[None, None, None]","[u'', 24, 4, -2, 4, -24, -8, 4, 2, 48, 8, -4, -4]",652206,57.0,9673.0,-5.44557176008e+18,mouselab-mdp,1
"[1914, 2561, 3193]","[u'right', u'right', u'up']",test,"[u'0', u'5', u'6', u'7']","{u'mouseover': {u'state': {u'target': [], u'time': []}, u'edge': {u'target': [], u'time': []}}, u'click': {u'state': {u'target': [u'5'], u'time': [813]}, u'edge': {u'target': [], u'time': []}}, u'mouseout': {u'state': {u'target': [], u'time': []}, u'edge': {u'target': [], u'time': []}}}","[48, 4, -4]","[1912, 154, 119]",47.0,"[None, None, None]","[u'', -48, 4, 2, -2, 48, 4, -4, -4, -48, -4, -4, 2]",663078,58.0,9809.0,-7.11696887988e+18,mouselab-mdp,1
"[1988, 2787, 4076]","[u'left', u'left', u'down']",test,"[u'0', u'9', u'10', u'12']","{u'mouseover': {u'state': {u'target': [], u'time': []}, u'edge': {u'target': [], u'time': []}}, u'click': {u'state': {u'target': [u'9'], u'time': [589]}, u'edge': {u'target': [], u'time': []}}, u'mouseout': {u'state': {u'target': [], u'time': []}, u'edge': {u'target': [], u'time': []}}}","[48, -4, -2]","[1987, 293, 781]",41.0,"[None, None, None]","[u'', -24, 4, 2, -2, 48, -8, 2, -2, 48, -4, 4, -2]",673768,59.0,9637.0,8.88172544804e+18,mouselab-mdp,1
"[17786, 18608, 19223]","[u'left', u'left', u'up']",train_basic,"[u'0', u'9', u'10', u'11']","{u'mouseover': {u'state': {u'target': [], u'time': []}, u'edge': {u'target': [], u'time': []}}, u'click': {u'state': {u'target': [], u'time': []}, u'edge': {u'target': [], u'time': []}}, u'mouseout': {u'state': {u'target': [], u'time': []}, u'edge': {u'target': [], u'time': []}}}","[4, 4, 48]","[17785, 302, 101]",56.0,"[None, None, None]","[u'', -4, -4, 24, -24, -4, 4, 24, 24, 4, 4, 48, -48]",21922,0.0,21819.0,-7.89014416469e+18,mouselab-mdp,2
"[3333, 4074, 4670]","[u'right', u'right', u'up']",train_basic,"[u'0', u'5', u'6', u'7']","{u'mouseover': {u'state': {u'target': [], u'time': []}, u'edge': {u'target': [], u'time': []}}, u'click': {u'state': {u'target': [], u'time': []}, u'edge': {u'target': [], u'time': []}}, u'mouseout': {u'state': {u'target': [], u'time': []}, u'edge': {u'target': [], u'time': []}}}","[4, 4, 48]","[3330, 231, 78]",56.0,"[None, None, None]","[u'', 2, -8, 24, 48, 4, 4, 48, 48, 2, -8, -48, -48]",29775,1.0,6769.0,7.00715418359e+18,mouselab-mdp,2
"[4463, 5072, 5702]","[u'right', u'right', u'down']",train_basic,"[u'0', u'5', u'6', u'8']","{u'mouseover': {u'state': {u'target': [], u'time': []}, u'edge': {u'target': [], u'time': []}}, u'click': {u'state': {u'target': [], u'time': []}, u'edge': {u'target': [], u'time': []}}, u'mouseout': {u'state': {u'target': [], u'time': []}, u'edge': {u'target': [], u'time': []}}}","[2, -8, 48]","[4463, 92, 122]",42.0,"[None, None, None]","[u'', -4, -8, -48, 24, 2, -8, -48, 48, 2, -8, -24, 24]",38169,2.0,7325.0,-3.53733836395e+18,mouselab-mdp,2
"[13107, 13684, 14736]","[u'up', u'up', u'left']",train_basic,"[u'0', u'1', u'2', u'4']","{u'mouseover': {u'state': {u'target': [], u'time': []}, u'edge': {u'target': [], u'time': []}}, u'click': {u'state': {u'target': [], u'time': []}, u'edge': {u'target': [], u'time': []}}, u'mouseout': {u'state': {u'target': [], u'time': []}, u'edge': {u'target': [], u'time': []}}}","[-2, 8, 48]","[13106, 64, 533]",54.0,"[None, None, None]","[u'', -2, 8, -24, 48, 2, 4, -48, 24, 4, -4, 48, 48]",55929,3.0,16707.0,3.76135431666e+18,mouselab-mdp,2
"[6077, 6846, 7437]","[u'right', u'right', u'up']",train_basic,"[u'0', u'5', u'6', u'7']","{u'mouseover': {u'state': {u'target': [], u'time': []}, u'edge': {u'target': [], u'time': []}}, u'click': {u'state': {u'target': [], u'time': []}, u'edge': {u'target': [], u'time': []}}, u'mouseout': {u'state': {u'target': [], u'time': []}, u'edge': {u'target': [], u'time': []}}}","[4, 4, 48]","[6076, 257, 80]",56.0,"[None, None, None]","[u'', -4, -4, -48, 24, 4, 4, 48, -24, 4, -4, 48, 24]",65717,4.0,8736.0,1.51884547362e+18,mouselab-mdp,2
"[7361, 8025, 8855]","[u'up', u'up', u'left']",train_basic2,"[u'0', u'1', u'2', u'4']","{u'mouseover': {u'state': {u'target': [], u'time': []}, u'edge': {u'target': [], u'time': []}}, u'click': {u'state': {u'target': [], u'time': []}, u'edge': {u'target': [], u'time': []}}, u'mouseout': {u'state': {u'target': [], u'time': []}, u'edge': {u'target': [], u'time': []}}}","[-4, 8, 48]","[7360, 154, 318]",52.0,"[None, None, None]","[u'', -4, 8, -48, 48, 2, -4, 48, -48, 2, -8, 24, -48]",79189,5.0,10476.0,5.25859295006e+18,mouselab-mdp,2
"[1776, 2555, 3245]","[u'left', u'left', u'up']",train_basic2,"[u'0', u'9', u'10', u'11']","{u'mouseover': {u'state': {u'target': [], u'time': []}, u'edge': {u'target': [], u'time': []}}, u'click': {u'state': {u'target': [], u'time': []}, u'edge': {u'target': [], u'time': []}}, u'mouseout': {u'state': {u'target': [], u'time': []}, u'edge': {u'target': [], u'time': []}}}","[4, 4, 48]","[1773, 266, 171]",56.0,"[None, None, None]","[u'', 2, -4, -48, -24, -2, -4, 48, -24, 4, 4, 48, -24]",85022,6.0,4740.0,7.5208296533e+18,mouselab-mdp,2
"[6655, 7307, 7902]","[u'left', u'left', u'up']",train_basic2,"[u'0', u'9', u'10', u'11']","{u'mouseover': {u'state': {u'target': [], u'time': []}, u'edge': {u'target': [], u'time': []}}, u'click': {u'state': {u'target': [], u'time': []}, u'edge': {u'target': [], u'time': []}}, u'mouseout': {u'state': {u'target': [], u'time': []}, u'edge': {u'target': [], u'time': []}}}","[4, -4, 48]","[6654, 136, 80]",48.0,"[None, None, None]","[u'', 4, -8, 24, 24, 2, 4, -24, 24, 4, -4, 48, -48]",95277,7.0,9166.0,-7.87683644611e+18,mouselab-mdp,2
"[7743, 8611, 9200]","[u'left', u'left', u'up']",train_basic2,"[u'0', u'9', u'10', u'11']","{u'mouseover': {u'state': {u'target': [], u'time': []}, u'edge': {u'target': [], u'time': []}}, u'click': {u'state': {u'target': [], u'time': []}, u'edge': {u'target': [], u'time': []}}, u'mouseout': {u'state': {u'target': [], u'time': []}, u'edge': {u'target': [], u'time': []}}}","[4, -4, 48]","[7741, 351, 73]",48.0,"[None, None, None]","[u'', 4, -8, 48, 24, -2, -4, 24, -24, 4, -4, 48, 48]",106903,8.0,10552.0,-8.93075642024e+18,mouselab-mdp,2
"[2222, 2883, 3533]","[u'up', u'up', u'right']",train_basic2,"[u'0', u'1', u'2', u'3']","{u'mouseover': {u'state': {u'target': [], u'time': []}, u'edge': {u'target': [], u'time': []}}, u'click': {u'state': {u'target': [], u'time': []}, u'edge': {u'target': [], u'time': []}}, u'mouseout': {u'state': {u'target': [], u'time': []}, u'edge': {u'target': [], u'time': []}}}","[4, 4, 48]","[2221, 142, 141]",56.0,"[None, None, None]","[u'', 4, 4, 48, -24, 4, -4, -48, 48, 2, -8, 48, 24]",113827,9.0,5866.0,-8.5802004347e+18,mouselab-mdp,2
"[11511, 12175, 13002]","[u'left', u'left', u'up']",train_hidden,"[u'0', u'9', u'10', u'11']","{u'mouseover': {u'state': {u'target': [], u'time': []}, u'edge': {u'target': [], u'time': []}}, u'click': {u'state': {u'target': [], u'time': []}, u'edge': {u'target': [], u'time': []}}, u'mouseout': {u'state': {u'target': [], u'time': []}, u'edge': {u'target': [], u'time': []}}}","[-4, -8, 24]","[11510, 142, 322]",12.0,"[None, None, None]","[u'', -4, 8, 24, 24, -2, -8, -48, -24, -4, -8, 24, 24]",131307,10.0,14566.0,5.78229284889e+18,mouselab-mdp,2
"[951, 1902, 2964]","[u'up', u'up', u'right']",train_hidden,"[u'0', u'1', u'2', u'3']","{u'mouseover': {u'state': {u'target': [], u'time': []}, u'edge': {u'target': [], u'time': []}}, u'click': {u'state': {u'target': [], u'time': []}, u'edge': {u'target': [], u'time': []}}, u'mouseout': {u'state': {u'target': [], u'time': []}, u'edge': {u'target': [], u'time': []}}}","[-2, 8, 24]","[949, 447, 559]",30.0,"[None, None, None]","[u'', -2, 8, 24, -48, 4, 4, -48, -24, 2, 8, -48, 48]",137249,11.0,4862.0,5.18817082972e+18,mouselab-mdp,2
"[339, 1317, 2214]","[u'left', u'left', u'down']",train_hidden,"[u'0', u'9', u'10', u'12']","{u'mouseover': {u'state': {u'target': [], u'time': []}, u'edge': {u'target': [], u'time': []}}, u'click': {u'state': {u'target': [], u'time': []}, u'edge': {u'target': [], u'time': []}}, u'mouseout': {u'state': {u'target': [], u'time': []}, u'edge': {u'target': [], u'time': []}}}","[-4, -8, 24]","[338, 470, 382]",12.0,"[None, None, None]","[u'', -2, 4, -24, 24, -4, 8, -24, -48, -4, -8, 24, 24]",141917,12.0,3599.0,3.02358967478e+18,mouselab-mdp,2
"[558, 1621, 2828]","[u'right', u'right', u'down']",train_hidden,"[u'0', u'5', u'6', u'8']","{u'mouseover': {u'state': {u'target': [], u'time': []}, u'edge': {u'target': [], u'time': []}}, u'click': {u'state': {u'target': [], u'time': []}, u'edge': {u'target': [], u'time': []}}, u'mouseout': {u'state': {u'target': [], u'time': []}, u'edge': {u'target': [], u'time': []}}}","[4, 4, 24]","[557, 543, 698]",32.0,"[None, None, None]","[u'', -2, -8, 48, 24, 4, 4, 48, 24, 2, -8, -24, -48]",147339,13.0,4364.0,-6.48073159306e+18,mouselab-mdp,2
"[2805, 3697, 4574]","[u'right', u'right', u'up']",train_hidden,"[u'0', u'5', u'6', u'7']","{u'mouseover': {u'state': {u'target': [], u'time': []}, u'edge': {u'target': [], u'time': []}}, u'click': {u'state': {u'target': [], u'time': []}, u'edge': {u'target': [], u'time': []}}, u'mouseout': {u'state': {u'target': [], u'time': []}, u'edge': {u'target': [], u'time': []}}}","[2, 4, -24]","[2804, 377, 372]",-18.0,"[None, None, None]","[u'', -2, 8, 24, 48, 2, 4, -24, 24, 4, 8, 48, 24]",154605,14.0,6212.0,2.79012568045e+18,mouselab-mdp,2
"[27937, 28505, 29099]","[u'right', u'right', u'up']",train_inspector,"[u'0', u'5', u'6', u'7']","{u'mouseover': {u'state': {u'target': [], u'time': []}, u'edge': {u'target': [], u'time': []}}, u'click': {u'state': {u'target': [u'11', u'12', u'8', u'7', u'3', u'4', u'5', u'6', u'2', u'1', u'9', u'10'], u'time': [15249, 16250, 17255, 18076, 18743, 19315, 20817, 22162, 22991, 23364, 24692, 25094]}, u'edge': {u'target': [], u'time': []}}, u'mouseout': {u'state': {u'target': [], u'time': []}, u'edge': {u'target': [], u'time': []}}}","[4, -4, 48]","[27935, 49, 76]",48.0,"[None, None, None]","[u'', 2, -8, 48, -48, 4, -4, 48, 24, 2, -8, -48, -48]",188137,15.0,30597.0,8.63855716523e+17,mouselab-mdp,2
"[9738, 10352, 10959]","[u'right', u'right', u'down']",train_inspector,"[u'0', u'5', u'6', u'8']","{u'mouseover': {u'state': {u'target': [], u'time': []}, u'edge': {u'target': [], u'time': []}}, u'click': {u'state': {u'target': [u'7', u'8', u'5', u'6'], u'time': [5392, 6074, 7137, 7574]}, u'edge': {u'target': [], u'time': []}}, u'mouseout': {u'state': {u'target': [], u'time': []}, u'edge': {u'target': [], u'time': []}}}","[-2, 4, 48]","[9737, 100, 89]",50.0,"[None, None, None]","[u'', -2, 8, 48, 24, -2, 4, -48, 48, 4, -8, -48, -48]",201549,16.0,12325.0,-7.38363829218e+18,mouselab-mdp,2
"[12670, 13331, 13950]","[u'left', u'left', u'down']",train_inspector,"[u'0', u'9', u'10', u'12']","{u'mouseover': {u'state': {u'target': [], u'time': []}, u'edge': {u'target': [], u'time': []}}, u'click': {u'state': {u'target': [u'7', u'8', u'11', u'12', u'9', u'10', u'4', u'3'], u'time': [2727, 3599, 4392, 5020, 6774, 8178, 9573, 10730]}, u'edge': {u'target': [], u'time': []}}, u'mouseout': {u'state': {u'target': [], u'time': []}, u'edge': {u'target': [], u'time': []}}}","[2, -4, 48]","[12668, 154, 105]",46.0,"[None, None, None]","[u'', 4, 8, 24, 24, -4, -4, -24, -48, 2, -4, 48, 48]",223497,17.0,20881.0,2.06077812078e+18,mouselab-mdp,2
"[14761, 15362, 15968]","[u'right', u'right', u'up']",train_inspector,"[u'0', u'5', u'6', u'7']","{u'mouseover': {u'state': {u'target': [], u'time': []}, u'edge': {u'target': [], u'time': []}}, u'click': {u'state': {u'target': [u'11', u'12', u'4', u'3', u'7', u'8', u'6', u'5', u'1', u'2'], u'time': [3475, 4192, 6555, 7168, 7805, 8455, 9044, 9568, 10095, 11638]}, u'edge': {u'target': [], u'time': []}}, u'mouseout': {u'state': {u'target': [], u'time': []}, u'edge': {u'target': [], u'time': []}}}","[-2, -8, 48]","[14760, 87, 92]",38.0,"[None, None, None]","[u'', -4, -8, 48, -48, -2, -8, 48, 24, -2, 8, 24, -24]",242429,18.0,17870.0,6.22141105441e+18,mouselab-mdp,2
"[8964, 9605, 10197]","[u'up', u'up', u'right']",train_inspector,"[u'0', u'1', u'2', u'3']","{u'mouseover': {u'state': {u'target': [], u'time': []}, u'edge': {u'target': [], u'time': []}}, u'click': {u'state': {u'target': [u'7', u'8', u'3', u'4', u'11', u'12', u'2', u'1'], u'time': [2155, 3933, 4680, 5494, 6390, 7004, 7702, 8106]}, u'edge': {u'target': [], u'time': []}}, u'mouseout': {u'state': {u'target': [], u'time': []}, u'edge': {u'target': [], u'time': []}}}","[4, 8, 48]","[8963, 126, 84]",60.0,"[None, None, None]","[u'', 4, 8, 48, 48, -4, -8, -48, 24, 4, 8, 24, 24]",255905,19.0,12284.0,-5.73655695109e+18,mouselab-mdp,2
"[7364, 8030, 8809]","[u'up', u'up', u'right']",train_inspect_cost,"[u'0', u'1', u'2', u'3']","{u'mouseover': {u'state': {u'target': [], u'time': []}, u'edge': {u'target': [], u'time': []}}, u'click': {u'state': {u'target': [u'11', u'4', u'3'], u'time': [1784, 2466, 3774]}, u'edge': {u'target': [], u'time': []}}, u'mouseout': {u'state': {u'target': [], u'time': []}, u'edge': {u'target': [], u'time': []}}}","[2, -8, 48]","[7362, 150, 263]",39.0,"[None, None, None]","[u'', 2, -8, 48, -48, -2, 8, -48, 24, 2, 8, -24, -48]",273416,20.0,14232.0,-5.29843985126e+18,mouselab-mdp,2
"[5878, 6774, 7712]","[u'right', u'right', u'up']",train_inspect_cost,"[u'0', u'5', u'6', u'7']","{u'mouseover': {u'state': {u'target': [], u'time': []}, u'edge': {u'target': [], u'time': []}}, u'click': {u'state': {u'target': [u'7', u'4', u'12'], u'time': [808, 2911, 3815]}, u'edge': {u'target': [], u'time': []}}, u'mouseout': {u'state': {u'target': [], u'time': []}, u'edge': {u'target': [], u'time': []}}}","[-4, -8, 24]","[5877, 385, 422]",9.0,"[None, None, None]","[u'', 2, 4, 24, 24, -4, -8, 24, 48, -4, -4, -24, -24]",283897,21.0,9391.0,7.79405771341e+17,mouselab-mdp,2
"[3732, 4342, 5094]","[u'right', u'right', u'down']",train_inspect_cost,"[u'0', u'5', u'6', u'8']","{u'mouseover': {u'state': {u'target': [], u'time': []}, u'edge': {u'target': [], u'time': []}}, u'click': {u'state': {u'target': [u'8'], u'time': [1664]}, u'edge': {u'target': [], u'time': []}}, u'mouseout': {u'state': {u'target': [], u'time': []}, u'edge': {u'target': [], u'time': []}}}","[4, 4, 48]","[3731, 91, 242]",55.0,"[None, None, None]","[u'', 2, 8, -48, 48, 4, 4, -24, 48, -4, -4, 48, -24]",291542,22.0,6556.0,-9.09463966077e+18,mouselab-mdp,2
"[2585, 3192, 4140]","[u'right', u'right', u'up']",train_inspect_cost,"[u'0', u'5', u'6', u'7']","{u'mouseover': {u'state': {u'target': [], u'time': []}, u'edge': {u'target': [], u'time': []}}, u'click': {u'state': {u'target': [u'7'], u'time': [739]}, u'edge': {u'target': [], u'time': []}}, u'mouseout': {u'state': {u'target': [], u'time': []}, u'edge': {u'target': [], u'time': []}}}","[4, -4, 24]","[2583, 94, 441]",23.0,"[None, None, None]","[u'', -4, -4, -24, 48, 4, -4, 24, -48, 2, -4, 48, 24]",297921,23.0,5310.0,6.16152731316e+18,mouselab-mdp,2
"[2023, 2869, 3638]","[u'right', u'right', u'down']",train_inspect_cost,"[u'0', u'5', u'6', u'8']","{u'mouseover': {u'state': {u'target': [], u'time': []}, u'edge': {u'target': [], u'time': []}}, u'click': {u'state': {u'target': [u'8'], u'time': [915]}, u'edge': {u'target': [], u'time': []}}, u'mouseout': {u'state': {u'target': [], u'time': []}, u'edge': {u'target': [], u'time': []}}}","[-2, 4, 48]","[2022, 328, 264]",49.0,"[None, None, None]","[u'', -2, 4, -24, 48, -2, 4, -24, 48, 4, -8, 24, 48]",303877,24.0,4902.0,3.36485828046e+17,mouselab-mdp,2
"[13824, 14457, 15179]","[u'left', u'left', u'down']",train_final,"[u'0', u'9', u'10', u'12']","{u'mouseover': {u'state': {u'target': [], u'time': []}, u'edge': {u'target': [], u'time': []}}, u'click': {u'state': {u'target': [u'8', u'3', u'11'], u'time': [7117, 8214, 8984]}, u'edge': {u'target': [], u'time': []}}, u'mouseout': {u'state': {u'target': [], u'time': []}, u'edge': {u'target': [], u'time': []}}}","[-4, 4, 24]","[13823, 116, 204]",21.0,"[None, None, None]","[u'', 2, -4, -48, 48, -4, -8, -24, -24, -4, 4, -48, 24]",323765,25.0,17003.0,-6.15791772037e+18,mouselab-mdp,2
"[5029, 5680, 6473]","[u'left', u'left', u'up']",train_final,"[u'0', u'9', u'10', u'11']","{u'mouseover': {u'state': {u'target': [], u'time': []}, u'edge': {u'target': [], u'time': []}}, u'click': {u'state': {u'target': [u'7', u'11'], u'time': [2263, 4239]}, u'edge': {u'target': [], u'time': []}}, u'mouseout': {u'state': {u'target': [], u'time': []}, u'edge': {u'target': [], u'time': []}}}","[4, 4, 48]","[5028, 137, 279]",54.0,"[None, None, None]","[u'', 2, 8, 48, 48, -4, -8, 24, 48, 4, 4, 48, 24]",332649,26.0,7797.0,4.61011171886e+17,mouselab-mdp,2
"[3911, 4494, 5306]","[u'right', u'right', u'up']",train_final,"[u'0', u'5', u'6', u'7']","{u'mouseover': {u'state': {u'target': [], u'time': []}, u'edge': {u'target': [], u'time': []}}, u'click': {u'state': {u'target': [u'7'], u'time': [2736]}, u'edge': {u'target': [], u'time': []}}, u'mouseout': {u'state': {u'target': [], u'time': []}, u'edge': {u'target': [], u'time': []}}}","[-4, 4, 24]","[3909, 60, 299]",23.0,"[None, None, None]","[u'', 2, -4, -24, -24, -4, 4, 24, -48, 4, 8, 48, 48]",339949,27.0,6236.0,-4.25047531215e+18,mouselab-mdp,2
"[2745, 3495, 4261]","[u'right', u'right', u'down']",train_final,"[u'0', u'5', u'6', u'8']","{u'mouseover': {u'state': {u'target': [], u'time': []}, u'edge': {u'target': [], u'time': []}}, u'click': {u'state': {u'target': [u'8'], u'time': [1690]}, u'edge': {u'target': [], u'time': []}}, u'mouseout': {u'state': {u'target': [], u'time': []}, u'edge': {u'target': [], u'time': []}}}","[-4, -8, 48]","[2744, 240, 255]",35.0,"[None, None, None]","[u'', -4, 4, -24, 48, -4, -8, -24, 48, -4, 8, -24, -48]",346477,28.0,5473.0,-5.43332865612e+18,mouselab-mdp,2
"[3851, 4505, 5297]","[u'right', u'right', u'up']",train_final,"[u'0', u'5', u'6', u'7']","{u'mouseover': {u'state': {u'target': [], u'time': []}, u'edge': {u'target': [], u'time': []}}, u'click': {u'state': {u'target': [u'7'], u'time': [2803]}, u'edge': {u'target': [], u'time': []}}, u'mouseout': {u'state': {u'target': [], u'time': []}, u'edge': {u'target': [], u'time': []}}}","[4, 4, 48]","[3850, 144, 286]",55.0,"[None, None, None]","[u'', 4, -4, 24, 24, 4, 4, 48, -48, 4, -8, -24, 48]",354279,29.0,6739.0,8.69559053241e+18,mouselab-mdp,2
"[9707, 10467, 11261]","[u'right', u'right', u'down']",test,"[u'0', u'5', u'6', u'8']","{u'mouseover': {u'state': {u'target': [], u'time': []}, u'edge': {u'target': [], u'time': []}}, u'click': {u'state': {u'target': [u'7', u'12', u'4', u'3'], u'time': [1458, 2583, 4552, 6734]}, u'edge': {u'target': [], u'time': []}}, u'mouseout': {u'state': {u'target': [], u'time': []}, u'edge': {u'target': [], u'time': []}}}","[2, -8, -24]","[9705, 253, 280]",-34.0,"[None, None, None]","[u'', -2, 8, -24, 24, 2, -8, -48, -24, 4, -4, 48, -48]",392009,30.0,12982.0,-6.37305172053e+18,mouselab-mdp,2
"[6365, 7162, 8126]","[u'left', u'left', u'down']",test,"[u'0', u'9', u'10', u'12']","{u'mouseover': {u'state': {u'target': [], u'time': []}, u'edge': {u'target': [], u'time': []}}, u'click': {u'state': {u'target': [u'8', u'4', u'12', u'7'], u'time': [1768, 2726, 3535, 4485]}, u'edge': {u'target': [], u'time': []}}, u'mouseout': {u'state': {u'target': [], u'time': []}, u'edge': {u'target': [], u'time': []}}}","[-4, -4, 24]","[6363, 293, 457]",12.0,"[None, None, None]","[u'', 2, 8, 48, -24, 2, 8, -24, 24, -4, -4, -48, 24]",402217,31.0,9152.0,-2.41028578503e+18,mouselab-mdp,2
"[4468, 5090, 5848]","[u'left', u'left', u'down']",test,"[u'0', u'9', u'10', u'12']","{u'mouseover': {u'state': {u'target': [], u'time': []}, u'edge': {u'target': [], u'time': []}}, u'click': {u'state': {u'target': [u'8', u'3', u'11', u'12'], u'time': [691, 1701, 2971, 3593]}, u'edge': {u'target': [], u'time': []}}, u'mouseout': {u'state': {u'target': [], u'time': []}, u'edge': {u'target': [], u'time': []}}}","[-2, 8, 48]","[4467, 108, 248]",50.0,"[None, None, None]","[u'', 2, 8, -48, -48, -4, 8, 24, 24, -2, 8, -24, 48]",411679,32.0,8402.0,-3.23598444488e+18,mouselab-mdp,2
"[4379, 5156, 6073]","[u'right', u'right', u'down']",test,"[u'0', u'5', u'6', u'8']","{u'mouseover': {u'state': {u'target': [], u'time': []}, u'edge': {u'target': [], u'time': []}}, u'click': {u'state': {u'target': [u'8', u'3', u'11', u'12'], u'time': [912, 1796, 2619, 3128]}, u'edge': {u'target': [], u'time': []}}, u'mouseout': {u'state': {u'target': [], u'time': []}, u'edge': {u'target': [], u'time': []}}}","[2, -4, 24]","[4378, 271, 405]",18.0,"[None, None, None]","[u'', -2, 8, -24, 48, 2, -4, 48, 24, -2, 8, -24, -24]",420345,33.0,7577.0,7.53059734346e+17,mouselab-mdp,2
"[5047, 5644, 6421]","[u'left', u'left', u'down']",test,"[u'0', u'9', u'10', u'12']","{u'mouseover': {u'state': {u'target': [], u'time': []}, u'edge': {u'target': [], u'time': []}}, u'click': {u'state': {u'target': [u'8', u'3', u'11', u'12'], u'time': [784, 2634, 3435, 4004]}, u'edge': {u'target': [], u'time': []}}, u'mouseout': {u'state': {u'target': [], u'time': []}, u'edge': {u'target': [], u'time': []}}}","[4, 8, 24]","[5045, 90, 266]",32.0,"[None, None, None]","[u'', -4, 8, -48, 24, -2, 4, -48, -48, 4, 8, -24, 24]",429727,34.0,8320.0,6.40648062811e+18,mouselab-mdp,2
"[4712, 5310, 5914]","[u'right', u'right', u'up']",test,"[u'0', u'5', u'6', u'7']","{u'mouseover': {u'state': {u'target': [], u'time': []}, u'edge': {u'target': [], u'time': []}}, u'click': {u'state': {u'target': [u'8', u'7'], u'time': [2546, 3442]}, u'edge': {u'target': [], u'time': []}}, u'mouseout': {u'state': {u'target': [], u'time': []}, u'edge': {u'target': [], u'time': []}}}","[-4, -8, 48]","[4711, 91, 94]",34.0,"[None, None, None]","[u'', -2, 4, -24, -24, -4, -8, 48, -24, 4, -8, -24, 24]",440167,35.0,9382.0,-5.12343493776e+16,mouselab-mdp,2
"[6044, 6669, 7464]","[u'left', u'left', u'down']",test,"[u'0', u'9', u'10', u'12']","{u'mouseover': {u'state': {u'target': [], u'time': []}, u'edge': {u'target': [], u'time': []}}, u'click': {u'state': {u'target': [u'8', u'11', u'3', u'12'], u'time': [1940, 3360, 4202, 5030]}, u'edge': {u'target': [], u'time': []}}, u'mouseout': {u'state': {u'target': [], u'time': []}, u'edge': {u'target': [], u'time': []}}}","[2, -4, 24]","[6042, 117, 277]",18.0,"[None, None, None]","[u'', -4, -4, -24, 24, -4, -8, -48, -48, 2, -4, -24, 24]",449793,36.0,8545.0,-5.7125146387e+18,mouselab-mdp,2
"[4176, 4842, 5562]","[u'right', u'right', u'up']",test,"[u'0', u'5', u'6', u'7']","{u'mouseover': {u'state': {u'target': [], u'time': []}, u'edge': {u'target': [], u'time': []}}, u'click': {u'state': {u'target': [u'8', u'4', u'7'], u'time': [756, 1666, 2572]}, u'edge': {u'target': [], u'time': []}}, u'mouseout': {u'state': {u'target': [], u'time': []}, u'edge': {u'target': [], u'time': []}}}","[4, -4, 48]","[4175, 147, 200]",45.0,"[None, None, None]","[u'', -4, 8, -24, -48, 4, -4, 48, 24, 4, 4, 48, -24]",460445,37.0,9598.0,7.11229992246e+18,mouselab-mdp,2
"[4287, 4868, 5539]","[u'right', u'right', u'down']",test,"[u'0', u'5', u'6', u'8']","{u'mouseover': {u'state': {u'target': [], u'time': []}, u'edge': {u'target': [], u'time': []}}, u'click': {u'state': {u'target': [u'12', u'3', u'8'], u'time': [1840, 2633, 3220]}, u'edge': {u'target': [], u'time': []}}, u'mouseout': {u'state': {u'target': [], u'time': []}, u'edge': {u'target': [], u'time': []}}}","[2, 4, 48]","[4286, 74, 159]",51.0,"[None, None, None]","[u'', 2, -4, -48, 24, 2, 4, -48, 48, -4, 4, 48, -48]",470805,38.0,9314.0,5.29721708418e+18,mouselab-mdp,2
"[3510, 4102, 4729]","[u'up', u'up', u'left']",test,"[u'0', u'1', u'2', u'4']","{u'mouseover': {u'state': {u'target': [], u'time': []}, u'edge': {u'target': [], u'time': []}}, u'click': {u'state': {u'target': [u'12', u'7', u'4'], u'time': [904, 1687, 2536]}, u'edge': {u'target': [], u'time': []}}, u'mouseout': {u'state': {u'target': [], u'time': []}, u'edge': {u'target': [], u'time': []}}}","[2, -8, 48]","[3509, 75, 121]",39.0,"[None, None, None]","[u'', 2, -8, -24, 48, 4, 4, -48, 24, 2, -4, -24, 24]",481151,39.0,9297.0,1.46664567646e+18,mouselab-mdp,2
"[9207, 9779, 10485]","[u'left', u'left', u'down']",test,"[u'0', u'9', u'10', u'12']","{u'mouseover': {u'state': {u'target': [], u'time': []}, u'edge': {u'target': [], u'time': []}}, u'click': {u'state': {u'target': [u'3', u'12'], u'time': [6974, 7963]}, u'edge': {u'target': [], u'time': []}}, u'mouseout': {u'state': {u'target': [], u'time': []}, u'edge': {u'target': [], u'time': []}}}","[2, -8, 48]","[9206, 64, 187]",40.0,"[None, None, None]","[u'', -4, -4, -24, 24, -2, 4, 24, 24, 2, -8, 48, 48]",493773,40.0,11575.0,-3.85844803044e+18,mouselab-mdp,2
"[2623, 3218, 3838]","[u'up', u'up', u'left']",test,"[u'0', u'1', u'2', u'4']","{u'mouseover': {u'state': {u'target': [], u'time': []}, u'edge': {u'target': [], u'time': []}}, u'click': {u'state': {u'target': [u'4'], u'time': [1484]}, u'edge': {u'target': [], u'time': []}}, u'mouseout': {u'state': {u'target': [], u'time': []}, u'edge': {u'target': [], u'time': []}}}","[4, 8, 48]","[2622, 85, 105]",59.0,"[None, None, None]","[u'', 4, 8, 24, 48, -4, -8, -24, -24, 4, -4, 24, 48]",504287,41.0,9468.0,-6.51926773257e+18,mouselab-mdp,2
"[4395, 5027, 5730]","[u'right', u'right', u'down']",test,"[u'0', u'5', u'6', u'8']","{u'mouseover': {u'state': {u'target': [], u'time': []}, u'edge': {u'target': [], u'time': []}}, u'click': {u'state': {u'target': [u'7', u'12', u'4', u'8'], u'time': [848, 1981, 2747, 3494]}, u'edge': {u'target': [], u'time': []}}, u'mouseout': {u'state': {u'target': [], u'time': []}, u'edge': {u'target': [], u'time': []}}}","[-2, -8, 48]","[4394, 128, 196]",34.0,"[None, None, None]","[u'', -4, -8, -48, -48, -2, -8, -48, 48, -2, 4, -24, -24]",513737,42.0,8405.0,5.13027503751e+18,mouselab-mdp,2
"[4728, 5388, 6076]","[u'right', u'right', u'up']",test,"[u'0', u'5', u'6', u'7']","{u'mouseover': {u'state': {u'target': [], u'time': []}, u'edge': {u'target': [], u'time': []}}, u'click': {u'state': {u'target': [u'3', u'12', u'7'], u'time': [800, 2731, 3454]}, u'edge': {u'target': [], u'time': []}}, u'mouseout': {u'state': {u'target': [], u'time': []}, u'edge': {u'target': [], u'time': []}}}","[4, 8, 48]","[4727, 155, 175]",57.0,"[None, None, None]","[u'', -2, -8, -24, 48, 4, 8, 48, -48, -4, -8, -24, -48]",523405,43.0,8614.0,-1.96643223462e+18,mouselab-mdp,2
"[3115, 3674, 4282]","[u'up', u'up', u'right']",test,"[u'0', u'1', u'2', u'3']","{u'mouseover': {u'state': {u'target': [], u'time': []}, u'edge': {u'target': [], u'time': []}}, u'click': {u'state': {u'target': [u'3'], u'time': [1907]}, u'edge': {u'target': [], u'time': []}}, u'mouseout': {u'state': {u'target': [], u'time': []}, u'edge': {u'target': [], u'time': []}}}","[-4, 8, 48]","[3114, 46, 104]",51.0,"[None, None, None]","[u'', -4, 8, 48, -24, -2, 8, -24, -48, 4, 8, -24, 48]",533177,44.0,8722.0,-3.25400642005e+18,mouselab-mdp,2
"[5115, 5772, 6510]","[u'right', u'right', u'down']",test,"[u'0', u'5', u'6', u'8']","{u'mouseover': {u'state': {u'target': [], u'time': []}, u'edge': {u'target': [], u'time': []}}, u'click': {u'state': {u'target': [u'3', u'12', u'11', u'8'], u'time': [1497, 2285, 2965, 4130]}, u'edge': {u'target': [], u'time': []}}, u'mouseout': {u'state': {u'target': [], u'time': []}, u'edge': {u'target': [], u'time': []}}}","[4, 4, 48]","[5114, 148, 219]",52.0,"[None, None, None]","[u'', 2, 8, -48, -48, 4, 4, -48, 48, 4, 8, 24, -48]",543625,45.0,9404.0,2.59484151302e+18,mouselab-mdp,2
"[11906, 12542, 13252]","[u'left', u'left', u'up']",test,"[u'0', u'9', u'10', u'11']","{u'mouseover': {u'state': {u'target': [], u'time': []}, u'edge': {u'target': [], u'time': []}}, u'click': {u'state': {u'target': [u'4', u'8', u'7', u'12'], u'time': [7724, 8539, 9240, 10198]}, u'edge': {u'target': [], u'time': []}}, u'mouseout': {u'state': {u'target': [], u'time': []}, u'edge': {u'target': [], u'time': []}}}","[4, -4, 48]","[11906, 119, 195]",44.0,"[None, None, None]","[u'', 4, -4, -48, -48, -4, 8, -48, -24, 4, -4, 48, -24]",559827,46.0,15154.0,-6.3406539033e+18,mouselab-mdp,2
"[4011, 4600, 5304]","[u'right', u'right', u'up']",test,"[u'0', u'5', u'6', u'7']","{u'mouseover': {u'state': {u'target': [], u'time': []}, u'edge': {u'target': [], u'time': []}}, u'click': {u'state': {u'target': [u'4', u'7'], u'time': [1582, 2995]}, u'edge': {u'target': [], u'time': []}}, u'mouseout': {u'state': {u'target': [], u'time': []}, u'edge': {u'target': [], u'time': []}}}","[4, 8, 48]","[4010, 55, 192]",58.0,"[None, None, None]","[u'', -2, 4, 24, -48, 4, 8, 48, -24, 2, -4, 24, 48]",580416,47.0,19539.0,2.91138569029e+18,mouselab-mdp,2
"[7065, 7637, 8491]","[u'left', u'left', u'up']",test,"[u'0', u'9', u'10', u'11']","{u'mouseover': {u'state': {u'target': [], u'time': []}, u'edge': {u'target': [], u'time': []}}, u'click': {u'state': {u'target': [u'3', u'11', u'8', u'7'], u'time': [1957, 2951, 4496, 5337]}, u'edge': {u'target': [], u'time': []}}, u'mouseout': {u'state': {u'target': [], u'time': []}, u'edge': {u'target': [], u'time': []}}}","[-2, 8, 24]","[7065, 61, 348]",26.0,"[None, None, None]","[u'', -4, -4, -24, 48, 4, 8, 24, -24, -2, 8, 24, 48]",591837,48.0,10333.0,-2.85119094507e+17,mouselab-mdp,2
"[4780, 5322, 5954]","[u'left', u'left', u'up']",test,"[u'0', u'9', u'10', u'11']","{u'mouseover': {u'state': {u'target': [], u'time': []}, u'edge': {u'target': [], u'time': []}}, u'click': {u'state': {u'target': [u'8', u'3', u'11'], u'time': [2552, 3186, 3821]}, u'edge': {u'target': [], u'time': []}}, u'mouseout': {u'state': {u'target': [], u'time': []}, u'edge': {u'target': [], u'time': []}}}","[2, -8, 48]","[4779, 25, 123]",39.0,"[None, None, None]","[u'', 2, -4, -24, -48, 4, -8, 48, -48, 2, -8, 48, -48]",602269,49.0,9360.0,2.73528446727e+18,mouselab-mdp,2
"[2535, 3127, 3775]","[u'right', u'right', u'up']",test,"[u'0', u'5', u'6', u'7']","{u'mouseover': {u'state': {u'target': [], u'time': []}, u'edge': {u'target': [], u'time': []}}, u'click': {u'state': {u'target': [u'7'], u'time': [1489]}, u'edge': {u'target': [], u'time': []}}, u'mouseout': {u'state': {u'target': [], u'time': []}, u'edge': {u'target': [], u'time': []}}}","[-2, 4, 48]","[2534, 87, 134]",49.0,"[None, None, None]","[u'', 2, -4, 48, -24, -2, 4, 48, -48, 2, 8, -48, 24]",612697,50.0,9373.0,-3.02495073278e+17,mouselab-mdp,2
"[6781, 7364, 8245]","[u'up', u'up', u'right']",test,"[u'0', u'1', u'2', u'3']","{u'mouseover': {u'state': {u'target': [], u'time': []}, u'edge': {u'target': [], u'time': []}}, u'click': {u'state': {u'target': [u'3', u'8', u'11', u'12'], u'time': [943, 2079, 2787, 5226]}, u'edge': {u'target': [], u'time': []}}, u'mouseout': {u'state': {u'target': [], u'time': []}, u'edge': {u'target': [], u'time': []}}}","[-2, 8, 24]","[6780, 70, 366]",26.0,"[None, None, None]","[u'', -2, 8, 24, 48, 2, -4, 48, -48, 2, 8, 24, -48]",623391,51.0,9639.0,4.4604977699e+18,mouselab-mdp,2
"[2198, 2890, 3554]","[u'right', u'right', u'up']",test,"[u'0', u'5', u'6', u'7']","{u'mouseover': {u'state': {u'target': [], u'time': []}, u'edge': {u'target': [], u'time': []}}, u'click': {u'state': {u'target': [u'7'], u'time': [1153]}, u'edge': {u'target': [], u'time': []}}, u'mouseout': {u'state': {u'target': [], u'time': []}, u'edge': {u'target': [], u'time': []}}}","[-2, -8, 48]","[2197, 181, 161]",37.0,"[None, None, None]","[u'', -2, 8, 24, 48, -2, -8, 48, 48, 2, 4, 24, 48]",633917,52.0,9474.0,1.01376733684e+18,mouselab-mdp,2
"[6315, 6983, 7654]","[u'right', u'right', u'down']",test,"[u'0', u'5', u'6', u'8']","{u'mouseover': {u'state': {u'target': [], u'time': []}, u'edge': {u'target': [], u'time': []}}, u'click': {u'state': {u'target': [u'7', u'3', u'11', u'8'], u'time': [2284, 3020, 4280, 5477]}, u'edge': {u'target': [], u'time': []}}, u'mouseout': {u'state': {u'target': [], u'time': []}, u'edge': {u'target': [], u'time': []}}}","[4, 4, 48]","[6314, 151, 154]",52.0,"[None, None, None]","[u'', -4, -8, -48, -48, 4, 4, 24, 48, -4, -4, 24, 48]",645117,53.0,10149.0,7.07260772545e+18,mouselab-mdp,2
"[5618, 6430, 7193]","[u'right', u'right', u'down']",test,"[u'0', u'5', u'6', u'8']","{u'mouseover': {u'state': {u'target': [], u'time': []}, u'edge': {u'target': [], u'time': []}}, u'click': {u'state': {u'target': [u'8', u'3', u'11', u'7'], u'time': [1580, 2284, 3306, 4361]}, u'edge': {u'target': [], u'time': []}}, u'mouseout': {u'state': {u'target': [], u'time': []}, u'edge': {u'target': [], u'time': []}}}","[4, 8, 24]","[5617, 307, 254]",32.0,"[None, None, None]","[u'', -2, 4, 24, 24, 4, 8, -48, 24, -2, 8, -48, -24]",655089,54.0,8916.0,-9.08425462157e+18,mouselab-mdp,2
"[3924, 4704, 5608]","[u'right', u'right', u'up']",test,"[u'0', u'5', u'6', u'7']","{u'mouseover': {u'state': {u'target': [], u'time': []}, u'edge': {u'target': [], u'time': []}}, u'click': {u'state': {u'target': [u'3', u'11', u'8', u'7'], u'time': [923, 1710, 2443, 3046]}, u'edge': {u'target': [], u'time': []}}, u'mouseout': {u'state': {u'target': [], u'time': []}, u'edge': {u'target': [], u'time': []}}}","[2, -4, 24]","[3923, 269, 389]",18.0,"[None, None, None]","[u'', 2, 4, -24, 48, 2, -4, 24, 24, 2, -4, -48, -24]",667023,55.0,10888.0,7.34135041139e+18,mouselab-mdp,2
"[1626, 2212, 2902]","[u'right', u'right', u'down']",test,"[u'0', u'5', u'6', u'8']","{u'mouseover': {u'state': {u'target': [], u'time': []}, u'edge': {u'target': [], u'time': []}}, u'click': {u'state': {u'target': [u'8'], u'time': [521]}, u'edge': {u'target': [], u'time': []}}, u'mouseout': {u'state': {u'target': [], u'time': []}, u'edge': {u'target': [], u'time': []}}}","[2, -8, 48]","[1625, 79, 184]",41.0,"[None, None, None]","[u'', -2, -8, -48, -24, 2, -8, -48, 48, -2, 4, -48, -48]",677559,56.0,9462.0,-9.74285796851e+17,mouselab-mdp,2
"[8289, 8895, 9557]","[u'left', u'left', u'up']",test,"[u'0', u'9', u'10', u'11']","{u'mouseover': {u'state': {u'target': [], u'time': []}, u'edge': {u'target': [], u'time': []}}, u'click': {u'state': {u'target': [u'11', u'8', u'3', u'12'], u'time': [1168, 2128, 2763, 6000]}, u'edge': {u'target': [], u'time': []}}, u'mouseout': {u'state': {u'target': [], u'time': []}, u'edge': {u'target': [], u'time': []}}}","[4, -4, 24]","[8288, 99, 144]",20.0,"[None, None, None]","[u'', -2, 4, -48, -24, -2, 4, 48, -24, 4, -4, 24, -48]",689549,57.0,10947.0,6.47501706979e+18,mouselab-mdp,2
"[1945, 2463, 3101]","[u'right', u'right', u'up']",test,"[u'0', u'5', u'6', u'7']","{u'mouseover': {u'state': {u'target': [], u'time': []}, u'edge': {u'target': [], u'time': []}}, u'click': {u'state': {u'target': [u'7'], u'time': [1037]}, u'edge': {u'target': [], u'time': []}}, u'mouseout': {u'state': {u'target': [], u'time': []}, u'edge': {u'target': [], u'time': []}}}","[-2, -8, 48]","[1944, 9, 130]",37.0,"[None, None, None]","[u'', 2, 4, -24, 48, -2, -8, 48, 24, 4, 8, -48, -48]",699357,58.0,8757.0,-2.59753903185e+18,mouselab-mdp,2
"[4583, 5215, 6159]","[u'left', u'left', u'up']",test,"[u'0', u'9', u'10', u'11']","{u'mouseover': {u'state': {u'target': [], u'time': []}, u'edge': {u'target': [], u'time': []}}, u'click': {u'state': {u'target': [u'3', u'4', u'8', u'11'], u'time': [987, 1912, 2617, 3440]}, u'edge': {u'target': [], u'time': []}}, u'mouseout': {u'state': {u'target': [], u'time': []}, u'edge': {u'target': [], u'time': []}}}","[2, -8, 24]","[4582, 120, 431]",14.0,"[None, None, None]","[u'', -2, -8, -48, 24, -4, -4, -24, -48, 2, -8, 24, 24]",709145,59.0,8739.0,8.32456338105e+18,mouselab-mdp,2
