action_times,actions,block,button_pressed,correct,key_press,path,queries,questions,responses,rewards,rt,score,simulation_mode,stimulus,time_elapsed,trial_index,trial_id,trial_type,pid
,,,0.0,,,,,,,,4449,,,"<h1 id=""trainingcompleted"">Training Completed</h1>

<p>Well done! You've completed the training phase and you're ready to
play <em>Web of Cash</em> for real. You will have <strong>20
rounds</strong> to make as much money as you can. Remember, <strong>you will earn 1 cent for every $1 you make in the game.</strong></p>

<p>Good luck!</p>",379915,,,button-response,0
,,,0.0,,,,,,,,2038,,,"<h1 id=""trainingcompleted"">Training Completed</h1>

<p>Well done! You've completed the training phase and you're ready to
play <em>Web of Cash</em> for real. You will have <strong>20
rounds</strong> to make as much money as you can. Remember, <strong>you will earn 1 cent for every $1 you make in the game.</strong></p>

<p>Good luck!</p>",282733,,,button-response,1
,,,0.0,,,,,,,,1006,,,"<h1 id=""trainingcompleted"">Training Completed</h1>

<p>Well done! You've completed the training phase and you're ready to
play <em>Web of Cash</em> for real. You will have <strong>20
rounds</strong> to make as much money as you can. Remember, <strong>you will earn 1 cent for every $1 you make in the game.</strong></p>

<p>Good luck!</p>",430936,,,button-response,2
,,,0.0,,,,,,,,2555,,,"<h1 id=""trainingcompleted"">Training Completed</h1>

<p>Well done! You've completed the training phase and you're ready to
play <em>Web of Cash</em> for real. You will have <strong>20
rounds</strong> to make as much money as you can. Remember, <strong>you will earn 1 cent for every $1 you make in the game.</strong></p>

<p>Good luck!</p>",447555,,,button-response,3
,,,0.0,,,,,,,,5835,,,"<h1 id=""trainingcompleted"">Training Completed</h1>

<p>Well done! You've completed the training phase and you're ready to
play <em>Web of Cash</em> for real. You will have <strong>20
rounds</strong> to make as much money as you can. Remember, <strong>you will earn 1 cent for every $1 you make in the game.</strong></p>

<p>Good luck!</p>",409187,,,button-response,4
,,,0.0,,,,,,,,3560,,,"<h1 id=""trainingcompleted"">Training Completed</h1>

<p>Well done! You've completed the training phase and you're ready to
play <em>Web of Cash</em> for real. You will have <strong>20
rounds</strong> to make as much money as you can. Remember, <strong>you will earn 1 cent for every $1 you make in the game.</strong></p>

<p>Good luck!</p>",335657,,,button-response,5
,,,0.0,,,,,,,,2369,,,"<h1 id=""trainingcompleted"">Training Completed</h1>

<p>Well done! You've completed the training phase and you're ready to
play <em>Web of Cash</em> for real. You will have <strong>20
rounds</strong> to make as much money as you can. Remember, <strong>you will earn 1 cent for every $1 you make in the game.</strong></p>

<p>Good luck!</p>",248967,,,button-response,6
,,,0.0,,,,,,,,7932,,,"<h1 id=""trainingcompleted"">Training Completed</h1>

<p>Well done! You've completed the training phase and you're ready to
play <em>Web of Cash</em> for real. You will have <strong>20
rounds</strong> to make as much money as you can. Remember, <strong>you will earn 1 cent for every $1 you make in the game.</strong></p>

<p>Good luck!</p>",513665,,,button-response,7
