action_times,actions,block,button_pressed,correct,key_press,path,queries,questions,responses,rewards,rt,score,simulation_mode,stimulus,time_elapsed,trial_index,trial_id,trial_type,pid
"[19935, 22541, 23597]","[u'right', u'right', u'up']",train_basic,,,,"[u'0', u'5', u'6', u'7']","{u'mouseover': {u'state': {u'target': [], u'time': []}, u'edge': {u'target': [], u'time': []}}, u'click': {u'state': {u'target': [], u'time': []}, u'edge': {u'target': [], u'time': []}}, u'mouseout': {u'state': {u'target': [], u'time': []}, u'edge': {u'target': [], u'time': []}}}",,,"[10, -10, 5]","[19929, 2080, 533]",5.0,"[None, None, None]",,39124,0.0,3.0262455045681644e+18,mouselab-mdp,0
"[61701, 62771, 63635]","[u'left', u'left', u'up']",train_basic,,,,"[u'0', u'9', u'10', u'11']","{u'mouseover': {u'state': {u'target': [], u'time': []}, u'edge': {u'target': [], u'time': []}}, u'click': {u'state': {u'target': [], u'time': []}, u'edge': {u'target': [], u'time': []}}, u'mouseout': {u'state': {u'target': [], u'time': []}, u'edge': {u'target': [], u'time': []}}}",,,"[10, 5, 10]","[61697, 546, 343]",25.0,"[None, None, None]",,105995,1.0,-2.6765330699051464e+18,mouselab-mdp,0
"[3770, 4594, 6602]","[u'up', u'up', u'right']",train_basic,,,,"[u'0', u'1', u'2', u'3']","{u'mouseover': {u'state': {u'target': [], u'time': []}, u'edge': {u'target': [], u'time': []}}, u'click': {u'state': {u'target': [], u'time': []}, u'edge': {u'target': [], u'time': []}}, u'mouseout': {u'state': {u'target': [], u'time': []}, u'edge': {u'target': [], u'time': []}}}",,,"[-5, 10, -10]","[3766, 299, 1469]",-5.0,"[None, None, None]",,115932,2.0,2.9612134047696353e+18,mouselab-mdp,0
"[4468, 5364, 6292]","[u'left', u'left', u'down']",train_basic,,,,"[u'0', u'9', u'10', u'12']","{u'mouseover': {u'state': {u'target': [], u'time': []}, u'edge': {u'target': [], u'time': []}}, u'click': {u'state': {u'target': [], u'time': []}, u'edge': {u'target': [], u'time': []}}, u'mouseout': {u'state': {u'target': [], u'time': []}, u'edge': {u'target': [], u'time': []}}}",,,"[-10, 10, 5]","[4465, 363, 410]",5.0,"[None, None, None]",,124611,3.0,5.724401768725425e+18,mouselab-mdp,0
"[1301, 7654, 9074]","[u'up', u'up', u'right']",train_basic,,,,"[u'0', u'1', u'2', u'3']","{u'mouseover': {u'state': {u'target': [], u'time': []}, u'edge': {u'target': [], u'time': []}}, u'click': {u'state': {u'target': [], u'time': []}, u'edge': {u'target': [], u'time': []}}, u'mouseout': {u'state': {u'target': [], u'time': []}, u'edge': {u'target': [], u'time': []}}}",,,"[-5, 10, -10]","[1299, 5831, 888]",-5.0,"[None, None, None]",,136812,4.0,7.645296890765741e+18,mouselab-mdp,0
"[8069, 8662, 9782]","[u'up', u'up', u'right']",train_basic,,,,"[u'0', u'1', u'2', u'3']","{u'mouseover': {u'state': {u'target': [], u'time': []}, u'edge': {u'target': [], u'time': []}}, u'click': {u'state': {u'target': [], u'time': []}, u'edge': {u'target': [], u'time': []}}, u'mouseout': {u'state': {u'target': [], u'time': []}, u'edge': {u'target': [], u'time': []}}}",,,"[10, -10, 10]","[8065, 61, 600]",10.0,"[None, None, None]",,149427,5.0,3.812331254939213e+18,mouselab-mdp,0
"[1357, 2101, 3036]","[u'right', u'right', u'down']",train_basic,,,,"[u'0', u'5', u'6', u'8']","{u'mouseover': {u'state': {u'target': [], u'time': []}, u'edge': {u'target': [], u'time': []}}, u'click': {u'state': {u'target': [], u'time': []}, u'edge': {u'target': [], u'time': []}}, u'mouseout': {u'state': {u'target': [], u'time': []}, u'edge': {u'target': [], u'time': []}}}",,,"[5, 10, -10]","[1355, 222, 410]",5.0,"[None, None, None]",,154492,6.0,4.126289696711771e+18,mouselab-mdp,0
"[486, 1118, 2151]","[u'left', u'left', u'up']",train_basic,,,,"[u'0', u'9', u'10', u'11']","{u'mouseover': {u'state': {u'target': [], u'time': []}, u'edge': {u'target': [], u'time': []}}, u'click': {u'state': {u'target': [], u'time': []}, u'edge': {u'target': [], u'time': []}}, u'mouseout': {u'state': {u'target': [], u'time': []}, u'edge': {u'target': [], u'time': []}}}",,,"[-5, 10, 10]","[484, 103, 501]",15.0,"[None, None, None]",,159116,7.0,7.03335331080147e+17,mouselab-mdp,0
"[2079, 2630, 3233]","[u'right', u'right', u'down']",train_basic,,,,"[u'0', u'5', u'6', u'8']","{u'mouseover': {u'state': {u'target': [], u'time': []}, u'edge': {u'target': [], u'time': []}}, u'click': {u'state': {u'target': [], u'time': []}, u'edge': {u'target': [], u'time': []}}, u'mouseout': {u'state': {u'target': [], u'time': []}, u'edge': {u'target': [], u'time': []}}}",,,"[10, -10, 10]","[2076, 23, 75]",10.0,"[None, None, None]",,164442,8.0,6.186837397190105e+18,mouselab-mdp,0
"[973, 2158, 2893]","[u'up', u'up', u'left']",train_basic,,,,"[u'0', u'1', u'2', u'4']","{u'mouseover': {u'state': {u'target': [], u'time': []}, u'edge': {u'target': [], u'time': []}}, u'click': {u'state': {u'target': [], u'time': []}, u'edge': {u'target': [], u'time': []}}, u'mouseout': {u'state': {u'target': [], u'time': []}, u'edge': {u'target': [], u'time': []}}}",,,"[5, -10, 10]","[971, 663, 217]",5.0,"[None, None, None]",,169604,9.0,-8.485306912601427e+16,mouselab-mdp,0
"[4637, 5876, 7021]","[u'left', u'left', u'up']",train_hidden,,,,"[u'0', u'9', u'10', u'11']","{u'mouseover': {u'state': {u'target': [], u'time': []}, u'edge': {u'target': [], u'time': []}}, u'click': {u'state': {u'target': [], u'time': []}, u'edge': {u'target': [], u'time': []}}, u'mouseout': {u'state': {u'target': [], u'time': []}, u'edge': {u'target': [], u'time': []}}}",,,"[5, -10, -5]","[4635, 708, 620]",-10.0,"[None, None, None]",,181434,10.0,9.10621497278211e+18,mouselab-mdp,0
"[1704, 2575, 3551]","[u'right', u'right', u'up']",train_hidden,,,,"[u'0', u'5', u'6', u'7']","{u'mouseover': {u'state': {u'target': [], u'time': []}, u'edge': {u'target': [], u'time': []}}, u'click': {u'state': {u'target': [], u'time': []}, u'edge': {u'target': [], u'time': []}}, u'mouseout': {u'state': {u'target': [], u'time': []}, u'edge': {u'target': [], u'time': []}}}",,,"[-5, 5, 5]","[1701, 355, 445]",5.0,"[None, None, None]",,187484,11.0,5.015924348765825e+18,mouselab-mdp,0
"[1227, 2004, 2908]","[u'up', u'up', u'right']",train_hidden,,,,"[u'0', u'1', u'2', u'3']","{u'mouseover': {u'state': {u'target': [], u'time': []}, u'edge': {u'target': [], u'time': []}}, u'click': {u'state': {u'target': [], u'time': []}, u'edge': {u'target': [], u'time': []}}, u'mouseout': {u'state': {u'target': [], u'time': []}, u'edge': {u'target': [], u'time': []}}}",,,"[10, 10, 10]","[1226, 237, 378]",30.0,"[None, None, None]",,192988,12.0,7.553211965372142e+18,mouselab-mdp,0
"[1396, 2100, 2875]","[u'left', u'left', u'up']",train_hidden,,,,"[u'0', u'9', u'10', u'11']","{u'mouseover': {u'state': {u'target': [], u'time': []}, u'edge': {u'target': [], u'time': []}}, u'click': {u'state': {u'target': [], u'time': []}, u'edge': {u'target': [], u'time': []}}, u'mouseout': {u'state': {u'target': [], u'time': []}, u'edge': {u'target': [], u'time': []}}}",,,"[5, 5, 5]","[1393, 168, 243]",15.0,"[None, None, None]",,198309,13.0,3.583064541232826e+18,mouselab-mdp,0
"[1857, 2433, 3128]","[u'up', u'up', u'left']",train_hidden,,,,"[u'0', u'1', u'2', u'4']","{u'mouseover': {u'state': {u'target': [], u'time': []}, u'edge': {u'target': [], u'time': []}}, u'click': {u'state': {u'target': [], u'time': []}, u'edge': {u'target': [], u'time': []}}, u'mouseout': {u'state': {u'target': [], u'time': []}, u'edge': {u'target': [], u'time': []}}}",,,"[10, -10, -10]","[1852, 49, 163]",-10.0,"[None, None, None]",,203611,14.0,3.6695183518116547e+18,mouselab-mdp,0
"[6299, 14298, 15114]","[u'right', u'right', u'up']",train_inspector,,,,"[u'0', u'5', u'6', u'7']","{u'mouseover': {u'state': {u'target': [], u'time': []}, u'edge': {u'target': [], u'time': []}}, u'click': {u'state': {u'target': [], u'time': []}, u'edge': {u'target': [], u'time': []}}, u'mouseout': {u'state': {u'target': [], u'time': []}, u'edge': {u'target': [], u'time': []}}}",,,"[10, 5, -10]","[6294, 7469, 283]",5.0,"[None, None, None]",,223060,15.0,2.0031782822548767e+18,mouselab-mdp,0
"[7643, 8348, 9242]","[u'right', u'right', u'down']",train_inspector,,,,"[u'0', u'5', u'6', u'8']","{u'mouseover': {u'state': {u'target': [], u'time': []}, u'edge': {u'target': [], u'time': []}}, u'click': {u'state': {u'target': [u'5'], u'time': [5948]}, u'edge': {u'target': [], u'time': []}}, u'mouseout': {u'state': {u'target': [], u'time': []}, u'edge': {u'target': [], u'time': []}}}",,,"[5, -5, -10]","[7641, 174, 367]",-10.0,"[None, None, None]",,234588,16.0,-3.06599297092415e+18,mouselab-mdp,0
"[2315, 2923, 3708]","[u'left', u'left', u'up']",train_inspector,,,,"[u'0', u'9', u'10', u'11']","{u'mouseover': {u'state': {u'target': [], u'time': []}, u'edge': {u'target': [], u'time': []}}, u'click': {u'state': {u'target': [u'9'], u'time': [1044]}, u'edge': {u'target': [], u'time': []}}, u'mouseout': {u'state': {u'target': [], u'time': []}, u'edge': {u'target': [], u'time': []}}}",,,"[10, 5, 10]","[2314, 78, 259]",25.0,"[None, None, None]",,240619,17.0,-9.103368144950199e+18,mouselab-mdp,0
"[1801, 2410, 3066]","[u'up', u'up', u'right']",train_inspector,,,,"[u'0', u'1', u'2', u'3']","{u'mouseover': {u'state': {u'target': [], u'time': []}, u'edge': {u'target': [], u'time': []}}, u'click': {u'state': {u'target': [u'1'], u'time': [1262]}, u'edge': {u'target': [], u'time': []}}, u'mouseout': {u'state': {u'target': [], u'time': []}, u'edge': {u'target': [], u'time': []}}}",,,"[10, 5, 5]","[1799, 90, 130]",20.0,"[None, None, None]",,245931,18.0,-3.8748518639778094e+18,mouselab-mdp,0
"[1155, 1723, 2628]","[u'right', u'right', u'down']",train_inspector,,,,"[u'0', u'5', u'6', u'8']","{u'mouseover': {u'state': {u'target': [], u'time': []}, u'edge': {u'target': [], u'time': []}}, u'click': {u'state': {u'target': [u'5'], u'time': [644]}, u'edge': {u'target': [], u'time': []}}, u'mouseout': {u'state': {u'target': [], u'time': []}, u'edge': {u'target': [], u'time': []}}}",,,"[10, -10, -5]","[1153, 44, 385]",-5.0,"[None, None, None]",,250996,19.0,-4.4291516051404616e+18,mouselab-mdp,0
"[49089, 49924, 50772]","[u'left', u'left', u'up']",train_inspect_cost,,,,"[u'0', u'9', u'10', u'11']","{u'mouseover': {u'state': {u'target': [], u'time': []}, u'edge': {u'target': [], u'time': []}}, u'click': {u'state': {u'target': [u'5'], u'time': [47212]}, u'edge': {u'target': [], u'time': []}}, u'mouseout': {u'state': {u'target': [], u'time': []}, u'edge': {u'target': [], u'time': []}}}",,,"[-10, 5, 10]","[49083, 304, 316]",4.0,"[None, None, None]",,307236,20.0,-5.833452680797874e+18,mouselab-mdp,0
"[2965, 3765, 4581]","[u'right', u'right', u'up']",train_inspect_cost,,,,"[u'0', u'5', u'6', u'7']","{u'mouseover': {u'state': {u'target': [], u'time': []}, u'edge': {u'target': [], u'time': []}}, u'click': {u'state': {u'target': [], u'time': []}, u'edge': {u'target': [], u'time': []}}, u'mouseout': {u'state': {u'target': [], u'time': []}, u'edge': {u'target': [], u'time': []}}}",,,"[-5, -10, 10]","[2960, 276, 294]",-5.0,"[None, None, None]",,314740,21.0,-5.149457503050632e+18,mouselab-mdp,0
"[2236, 2820, 3781]","[u'up', u'up', u'right']",train_inspect_cost,,,,"[u'0', u'1', u'2', u'3']","{u'mouseover': {u'state': {u'target': [], u'time': []}, u'edge': {u'target': [], u'time': []}}, u'click': {u'state': {u'target': [u'1'], u'time': [1664]}, u'edge': {u'target': [], u'time': []}}, u'mouseout': {u'state': {u'target': [], u'time': []}, u'edge': {u'target': [], u'time': []}}}",,,"[5, -10, 10]","[2233, 54, 430]",4.0,"[None, None, None]",,321291,22.0,5.309248044539889e+18,mouselab-mdp,0
"[2875, 3650, 4506]","[u'left', u'left', u'up']",train_inspect_cost,,,,"[u'0', u'9', u'10', u'11']","{u'mouseover': {u'state': {u'target': [], u'time': []}, u'edge': {u'target': [], u'time': []}}, u'click': {u'state': {u'target': [], u'time': []}, u'edge': {u'target': [], u'time': []}}, u'mouseout': {u'state': {u'target': [], u'time': []}, u'edge': {u'target': [], u'time': []}}}",,,"[5, 10, -5]","[2871, 246, 334]",10.0,"[None, None, None]",,328259,23.0,4.517249616187461e+18,mouselab-mdp,0
"[1941, 2492, 3068]","[u'up', u'up', u'right']",train_inspect_cost,,,,"[u'0', u'1', u'2', u'3']","{u'mouseover': {u'state': {u'target': [], u'time': []}, u'edge': {u'target': [], u'time': []}}, u'click': {u'state': {u'target': [u'1'], u'time': [1428]}, u'edge': {u'target': [], u'time': []}}, u'mouseout': {u'state': {u'target': [], u'time': []}, u'edge': {u'target': [], u'time': []}}}",,,"[10, 10, 5]","[1938, 27, 53]",24.0,"[None, None, None]",,333644,24.0,-1.4141965748565614e+17,mouselab-mdp,0
"[16663, 17687, 18335]","[u'up', u'up', u'right']",train_final,,,,"[u'0', u'1', u'2', u'3']","{u'mouseover': {u'state': {u'target': [], u'time': []}, u'edge': {u'target': [], u'time': []}}, u'click': {u'state': {u'target': [u'1'], u'time': [16227]}, u'edge': {u'target': [], u'time': []}}, u'mouseout': {u'state': {u'target': [], u'time': []}, u'edge': {u'target': [], u'time': []}}}",,,"[-5, -10, 10]","[16661, 504, 117]",-6.0,"[None, None, None]",,356666,25.0,-3.5260456632436096e+17,mouselab-mdp,0
"[521, 1057, 1912]","[u'right', u'right', u'down']",train_final,,,,"[u'0', u'5', u'6', u'8']","{u'mouseover': {u'state': {u'target': [], u'time': []}, u'edge': {u'target': [], u'time': []}}, u'click': {u'state': {u'target': [], u'time': []}, u'edge': {u'target': [], u'time': []}}, u'mouseout': {u'state': {u'target': [], u'time': []}, u'edge': {u'target': [], u'time': []}}}",,,"[10, 10, 10]","[519, 8, 330]",30.0,"[None, None, None]",,361011,26.0,-3.650836633176822e+16,mouselab-mdp,0
"[422, 948, 1846]","[u'up', u'up', u'left']",train_final,,,,"[u'0', u'1', u'2', u'4']","{u'mouseover': {u'state': {u'target': [], u'time': []}, u'edge': {u'target': [], u'time': []}}, u'click': {u'state': {u'target': [], u'time': []}, u'edge': {u'target': [], u'time': []}}, u'mouseout': {u'state': {u'target': [], u'time': []}, u'edge': {u'target': [], u'time': []}}}",,,"[-5, 10, 5]","[420, 2, 352]",10.0,"[None, None, None]",,365724,27.0,-6.72824086845133e+18,mouselab-mdp,0
"[790, 1374, 1942]","[u'left', u'left', u'up']",train_final,,,,"[u'0', u'9', u'10', u'11']","{u'mouseover': {u'state': {u'target': [], u'time': []}, u'edge': {u'target': [], u'time': []}}, u'click': {u'state': {u'target': [], u'time': []}, u'edge': {u'target': [], u'time': []}}, u'mouseout': {u'state': {u'target': [], u'time': []}, u'edge': {u'target': [], u'time': []}}}",,,"[10, -5, 10]","[786, 56, 43]",15.0,"[None, None, None]",,369964,28.0,-3.8790525829275725e+17,mouselab-mdp,0
"[327, 1432, 2311]","[u'right', u'right', u'up']",train_final,,,,"[u'0', u'5', u'6', u'7']","{u'mouseover': {u'state': {u'target': [], u'time': []}, u'edge': {u'target': [], u'time': []}}, u'click': {u'state': {u'target': [], u'time': []}, u'edge': {u'target': [], u'time': []}}, u'mouseout': {u'state': {u'target': [], u'time': []}, u'edge': {u'target': [], u'time': []}}}",,,"[-10, -5, -10]","[324, 572, 351]",-25.0,"[None, None, None]",,374452,29.0,-2.7782514449718523e+18,mouselab-mdp,0
"[14398, 15147, 16212]","[u'right', u'right', u'down']",test,,,,"[u'0', u'5', u'6', u'8']","{u'mouseover': {u'state': {u'target': [], u'time': []}, u'edge': {u'target': [], u'time': []}}, u'click': {u'state': {u'target': [], u'time': []}, u'edge': {u'target': [], u'time': []}}, u'mouseout': {u'state': {u'target': [], u'time': []}, u'edge': {u'target': [], u'time': []}}}",,,"[10, -5, -10]","[14393, 233, 530]",-5.0,"[None, None, None]",,533051,30.0,-3.506160317620679e+18,mouselab-mdp,0
"[770, 1410, 2131]","[u'up', u'up', u'left']",test,,,,"[u'0', u'1', u'2', u'4']","{u'mouseover': {u'state': {u'target': [], u'time': []}, u'edge': {u'target': [], u'time': []}}, u'click': {u'state': {u'target': [], u'time': []}, u'edge': {u'target': [], u'time': []}}, u'mouseout': {u'state': {u'target': [], u'time': []}, u'edge': {u'target': [], u'time': []}}}",,,"[-5, 5, 10]","[768, 107, 196]",10.0,"[None, None, None]",,537907,31.0,-6.467484867280245e+18,mouselab-mdp,0
"[599, 1719, 2528]","[u'left', u'left', u'up']",test,,,,"[u'0', u'9', u'10', u'11']","{u'mouseover': {u'state': {u'target': [], u'time': []}, u'edge': {u'target': [], u'time': []}}, u'click': {u'state': {u'target': [], u'time': []}, u'edge': {u'target': [], u'time': []}}, u'mouseout': {u'state': {u'target': [], u'time': []}, u'edge': {u'target': [], u'time': []}}}",,,"[5, 10, -5]","[596, 585, 276]",10.0,"[None, None, None]",,543307,32.0,-7.125102216625555e+18,mouselab-mdp,0
"[849, 1833, 2728]","[u'up', u'up', u'right']",test,,,,"[u'0', u'1', u'2', u'3']","{u'mouseover': {u'state': {u'target': [], u'time': []}, u'edge': {u'target': [], u'time': []}}, u'click': {u'state': {u'target': [], u'time': []}, u'edge': {u'target': [], u'time': []}}, u'mouseout': {u'state': {u'target': [], u'time': []}, u'edge': {u'target': [], u'time': []}}}",,,"[5, 5, -10]","[846, 446, 376]",0.0,"[None, None, None]",,548668,33.0,1.3765381945531668e+18,mouselab-mdp,0
"[659, 1351, 2111]","[u'left', u'left', u'up']",test,,,,"[u'0', u'9', u'10', u'11']","{u'mouseover': {u'state': {u'target': [], u'time': []}, u'edge': {u'target': [], u'time': []}}, u'click': {u'state': {u'target': [], u'time': []}, u'edge': {u'target': [], u'time': []}}, u'mouseout': {u'state': {u'target': [], u'time': []}, u'edge': {u'target': [], u'time': []}}}",,,"[-10, -10, 10]","[656, 171, 231]",-10.0,"[None, None, None]",,553108,34.0,2.102736855806764e+18,mouselab-mdp,0
"[1338, 2201, 3058]","[u'right', u'right', u'down']",test,,,,"[u'0', u'5', u'6', u'8']","{u'mouseover': {u'state': {u'target': [], u'time': []}, u'edge': {u'target': [], u'time': []}}, u'click': {u'state': {u'target': [], u'time': []}, u'edge': {u'target': [], u'time': []}}, u'mouseout': {u'state': {u'target': [], u'time': []}, u'edge': {u'target': [], u'time': []}}}",,,"[-5, -5, -5]","[1337, 340, 333]",-15.0,"[None, None, None]",,559547,35.0,2.64561491402998e+18,mouselab-mdp,0
"[570, 1370, 2170]","[u'up', u'up', u'left']",test,,,,"[u'0', u'1', u'2', u'4']","{u'mouseover': {u'state': {u'target': [], u'time': []}, u'edge': {u'target': [], u'time': []}}, u'click': {u'state': {u'target': [], u'time': []}, u'edge': {u'target': [], u'time': []}}, u'mouseout': {u'state': {u'target': [], u'time': []}, u'edge': {u'target': [], u'time': []}}}",,,"[10, -5, -5]","[566, 288, 272]",0.0,"[None, None, None]",,564019,36.0,7.91556335598923e+18,mouselab-mdp,0
"[376, 1048, 1664]","[u'right', u'right', u'down']",test,,,,"[u'0', u'5', u'6', u'8']","{u'mouseover': {u'state': {u'target': [], u'time': []}, u'edge': {u'target': [], u'time': []}}, u'click': {u'state': {u'target': [], u'time': []}, u'edge': {u'target': [], u'time': []}}, u'mouseout': {u'state': {u'target': [], u'time': []}, u'edge': {u'target': [], u'time': []}}}",,,"[-10, 5, -10]","[372, 142, 91]",-15.0,"[None, None, None]",,567844,37.0,7.839838664789078e+18,mouselab-mdp,0
"[340, 1012, 1595]","[u'up', u'up', u'left']",test,,,,"[u'0', u'1', u'2', u'4']","{u'mouseover': {u'state': {u'target': [], u'time': []}, u'edge': {u'target': [], u'time': []}}, u'click': {u'state': {u'target': [], u'time': []}, u'edge': {u'target': [], u'time': []}}, u'mouseout': {u'state': {u'target': [], u'time': []}, u'edge': {u'target': [], u'time': []}}}",,,"[5, -10, 5]","[338, 144, 60]",0.0,"[None, None, None]",,571604,38.0,-8.965170723769651e+18,mouselab-mdp,0
"[424, 1192, 1975]","[u'left', u'left', u'up']",test,,,,"[u'0', u'9', u'10', u'11']","{u'mouseover': {u'state': {u'target': [], u'time': []}, u'edge': {u'target': [], u'time': []}}, u'click': {u'state': {u'target': [], u'time': []}, u'edge': {u'target': [], u'time': []}}, u'mouseout': {u'state': {u'target': [], u'time': []}, u'edge': {u'target': [], u'time': []}}}",,,"[5, -10, -10]","[421, 246, 263]",-15.0,"[None, None, None]",,576020,39.0,7.434111409514572e+18,mouselab-mdp,0
"[848, 1381, 1948]","[u'up', u'up', u'right']",test,,,,"[u'0', u'1', u'2', u'3']","{u'mouseover': {u'state': {u'target': [], u'time': []}, u'edge': {u'target': [], u'time': []}}, u'click': {u'state': {u'target': [], u'time': []}, u'edge': {u'target': [], u'time': []}}, u'mouseout': {u'state': {u'target': [], u'time': []}, u'edge': {u'target': [], u'time': []}}}",,,"[5, 10, 10]","[845, 5, 39]",25.0,"[None, None, None]",,580244,40.0,-7.824465990977061e+18,mouselab-mdp,0
"[3679, 4406, 5079]","[u'up', u'up', u'right']",test,,,,"[u'0', u'1', u'2', u'3']","{u'mouseover': {u'state': {u'target': [], u'time': []}, u'edge': {u'target': [], u'time': []}}, u'click': {u'state': {u'target': [u'5', u'9'], u'time': [1098, 3152]}, u'edge': {u'target': [], u'time': []}}, u'mouseout': {u'state': {u'target': [], u'time': []}, u'edge': {u'target': [], u'time': []}}}",,,"[10, 10, 10]","[3676, 198, 140]",28.0,"[None, None, None]",,588124,41.0,-5.799413076952947e+18,mouselab-mdp,0
"[2766, 3405, 4452]","[u'right', u'right', u'up']",test,,,,"[u'0', u'5', u'6', u'7']","{u'mouseover': {u'state': {u'target': [], u'time': []}, u'edge': {u'target': [], u'time': []}}, u'click': {u'state': {u'target': [u'5'], u'time': [2155]}, u'edge': {u'target': [], u'time': []}}, u'mouseout': {u'state': {u'target': [], u'time': []}, u'edge': {u'target': [], u'time': []}}}",,,"[10, 10, 5]","[2762, 104, 524]",24.0,"[None, None, None]",,594788,42.0,-3.081449241277774e+18,mouselab-mdp,0
"[3742, 4325, 5662]","[u'right', u'right', u'down']",test,,,,"[u'0', u'5', u'6', u'8']","{u'mouseover': {u'state': {u'target': [], u'time': []}, u'edge': {u'target': [], u'time': []}}, u'click': {u'state': {u'target': [u'9', u'5'], u'time': [964, 3197]}, u'edge': {u'target': [], u'time': []}}, u'mouseout': {u'state': {u'target': [], u'time': []}, u'edge': {u'target': [], u'time': []}}}",,,"[5, 10, 5]","[3739, 57, 811]",18.0,"[None, None, None]",,602916,43.0,-3.810609463936167e+18,mouselab-mdp,0
"[4941, 5717, 6463]","[u'left', u'left', u'up']",test,,,,"[u'0', u'9', u'10', u'11']","{u'mouseover': {u'state': {u'target': [], u'time': []}, u'edge': {u'target': [], u'time': []}}, u'click': {u'state': {u'target': [], u'time': []}, u'edge': {u'target': [], u'time': []}}, u'mouseout': {u'state': {u'target': [], u'time': []}, u'edge': {u'target': [], u'time': []}}}",,,"[-10, -10, -5]","[4940, 246, 224]",-25.0,"[None, None, None]",,611635,44.0,4.79729195570316e+18,mouselab-mdp,0
"[1947, 2468, 3315]","[u'right', u'right', u'down']",test,,,,"[u'0', u'5', u'6', u'8']","{u'mouseover': {u'state': {u'target': [], u'time': []}, u'edge': {u'target': [], u'time': []}}, u'click': {u'state': {u'target': [u'5'], u'time': [956]}, u'edge': {u'target': [], u'time': []}}, u'mouseout': {u'state': {u'target': [], u'time': []}, u'edge': {u'target': [], u'time': []}}}",,,"[5, 10, -10]","[1945, 2, 317]",4.0,"[None, None, None]",,617460,45.0,5.439632916575948e+18,mouselab-mdp,0
"[1774, 2357, 3469]","[u'up', u'up', u'left']",test,,,,"[u'0', u'1', u'2', u'4']","{u'mouseover': {u'state': {u'target': [], u'time': []}, u'edge': {u'target': [], u'time': []}}, u'click': {u'state': {u'target': [u'1'], u'time': [1130]}, u'edge': {u'target': [], u'time': []}}, u'mouseout': {u'state': {u'target': [], u'time': []}, u'edge': {u'target': [], u'time': []}}}",,,"[5, 5, -10]","[1771, 49, 582]",-1.0,"[None, None, None]",,623877,46.0,-3.214860887015687e+18,mouselab-mdp,0
"[3437, 4051, 4932]","[u'left', u'left', u'up']",test,,,,"[u'0', u'9', u'10', u'11']","{u'mouseover': {u'state': {u'target': [], u'time': []}, u'edge': {u'target': [], u'time': []}}, u'click': {u'state': {u'target': [u'1', u'5', u'9'], u'time': [979, 2158, 2935]}, u'edge': {u'target': [], u'time': []}}, u'mouseout': {u'state': {u'target': [], u'time': []}, u'edge': {u'target': [], u'time': []}}}",,,"[5, 10, 10]","[3434, 71, 347]",22.0,"[None, None, None]",,631252,47.0,4.842692465290208e+18,mouselab-mdp,0
"[1514, 2075, 3074]","[u'right', u'right', u'up']",test,,,,"[u'0', u'5', u'6', u'7']","{u'mouseover': {u'state': {u'target': [], u'time': []}, u'edge': {u'target': [], u'time': []}}, u'click': {u'state': {u'target': [u'5'], u'time': [741]}, u'edge': {u'target': [], u'time': []}}, u'mouseout': {u'state': {u'target': [], u'time': []}, u'edge': {u'target': [], u'time': []}}}",,,"[10, -10, -10]","[1511, 28, 476]",-11.0,"[None, None, None]",,636477,48.0,8.845312654804484e+18,mouselab-mdp,0
"[4556, 5125, 5821]","[u'left', u'left', u'up']",test,,,,"[u'0', u'9', u'10', u'11']","{u'mouseover': {u'state': {u'target': [], u'time': []}, u'edge': {u'target': [], u'time': []}}, u'click': {u'state': {u'target': [u'1', u'5', u'9'], u'time': [1060, 2319, 3706]}, u'edge': {u'target': [], u'time': []}}, u'mouseout': {u'state': {u'target': [], u'time': []}, u'edge': {u'target': [], u'time': []}}}",,,"[5, -5, 10]","[4555, 48, 177]",7.0,"[None, None, None]",,644620,49.0,-8.430627562648791e+18,mouselab-mdp,0
"[14957, 15866, 17040]","[u'up', u'up', u'right']",train_basic,,,,"[u'0', u'1', u'2', u'3']","{u'mouseover': {u'state': {u'target': [], u'time': []}, u'edge': {u'target': [], u'time': []}}, u'click': {u'state': {u'target': [], u'time': []}, u'edge': {u'target': [], u'time': []}}, u'mouseout': {u'state': {u'target': [], u'time': []}, u'edge': {u'target': [], u'time': []}}}",,,"[5, -10, 10]","[14934, 345, 623]",5.0,"[None, None, None]",,20303,0.0,-5.149457503050632e+18,mouselab-mdp,1
"[3400, 4054, 4784]","[u'up', u'up', u'right']",train_basic,,,,"[u'0', u'1', u'2', u'3']","{u'mouseover': {u'state': {u'target': [], u'time': []}, u'edge': {u'target': [], u'time': []}}, u'click': {u'state': {u'target': [], u'time': []}, u'edge': {u'target': [], u'time': []}}, u'mouseout': {u'state': {u'target': [], u'time': []}, u'edge': {u'target': [], u'time': []}}}",,,"[5, 5, -10]","[3370, 75, 142]",0.0,"[None, None, None]",,28849,1.0,-4.854145221764645e+18,mouselab-mdp,1
"[4096, 4833, 5392]","[u'right', u'right', u'up']",train_basic,,,,"[u'0', u'5', u'6', u'7']","{u'mouseover': {u'state': {u'target': [], u'time': []}, u'edge': {u'target': [], u'time': []}}, u'click': {u'state': {u'target': [], u'time': []}, u'edge': {u'target': [], u'time': []}}, u'mouseout': {u'state': {u'target': [], u'time': []}, u'edge': {u'target': [], u'time': []}}}",,,"[10, -10, 5]","[4087, 154, 11]",5.0,"[None, None, None]",,36811,2.0,3.0262455045681644e+18,mouselab-mdp,1
"[6171, 6937, 8054]","[u'up', u'up', u'right']",train_basic,,,,"[u'0', u'1', u'2', u'3']","{u'mouseover': {u'state': {u'target': [], u'time': []}, u'edge': {u'target': [], u'time': []}}, u'click': {u'state': {u'target': [], u'time': []}, u'edge': {u'target': [], u'time': []}}, u'mouseout': {u'state': {u'target': [], u'time': []}, u'edge': {u'target': [], u'time': []}}}",,,"[5, 5, -10]","[6159, 185, 575]",0.0,"[None, None, None]",,47546,3.0,-3.214860887015687e+18,mouselab-mdp,1
"[4126, 5387, 6080]","[u'right', u'right', u'up']",train_basic,,,,"[u'0', u'5', u'6', u'7']","{u'mouseover': {u'state': {u'target': [], u'time': []}, u'edge': {u'target': [], u'time': []}}, u'click': {u'state': {u'target': [], u'time': []}, u'edge': {u'target': [], u'time': []}}, u'mouseout': {u'state': {u'target': [], u'time': []}, u'edge': {u'target': [], u'time': []}}}",,,"[-5, 5, 10]","[4114, 717, 131]",10.0,"[None, None, None]",,56170,4.0,7.645296890765741e+18,mouselab-mdp,1
"[1849, 2490, 3864]","[u'up', u'up', u'left']",train_basic,,,,"[u'0', u'1', u'2', u'4']","{u'mouseover': {u'state': {u'target': [], u'time': []}, u'edge': {u'target': [], u'time': []}}, u'click': {u'state': {u'target': [], u'time': []}, u'edge': {u'target': [], u'time': []}}, u'mouseout': {u'state': {u'target': [], u'time': []}, u'edge': {u'target': [], u'time': []}}}",,,"[10, -5, 10]","[1838, 104, 770]",15.0,"[None, None, None]",,64359,5.0,-4.4291516051404616e+18,mouselab-mdp,1
"[2185, 2860, 3458]","[u'right', u'right', u'up']",train_basic,,,,"[u'0', u'5', u'6', u'7']","{u'mouseover': {u'state': {u'target': [], u'time': []}, u'edge': {u'target': [], u'time': []}}, u'click': {u'state': {u'target': [], u'time': []}, u'edge': {u'target': [], u'time': []}}, u'mouseout': {u'state': {u'target': [], u'time': []}, u'edge': {u'target': [], u'time': []}}}",,,"[5, -5, 10]","[2176, 95, 47]",10.0,"[None, None, None]",,72185,6.0,9.182422570892963e+18,mouselab-mdp,1
"[2712, 4044, 4748]","[u'left', u'left', u'down']",train_basic,,,,"[u'0', u'9', u'10', u'12']","{u'mouseover': {u'state': {u'target': [], u'time': []}, u'edge': {u'target': [], u'time': []}}, u'click': {u'state': {u'target': [], u'time': []}, u'edge': {u'target': [], u'time': []}}, u'mouseout': {u'state': {u'target': [], u'time': []}, u'edge': {u'target': [], u'time': []}}}",,,"[10, 5, 10]","[2697, 746, 146]",25.0,"[None, None, None]",,80029,7.0,8.845312654804484e+18,mouselab-mdp,1
"[1033, 1716, 2316]","[u'right', u'right', u'up']",train_basic,,,,"[u'0', u'5', u'6', u'7']","{u'mouseover': {u'state': {u'target': [], u'time': []}, u'edge': {u'target': [], u'time': []}}, u'click': {u'state': {u'target': [], u'time': []}, u'edge': {u'target': [], u'time': []}}, u'mouseout': {u'state': {u'target': [], u'time': []}, u'edge': {u'target': [], u'time': []}}}",,,"[10, -5, 5]","[1024, 53, 10]",10.0,"[None, None, None]",,84533,8.0,-7.325569627557755e+18,mouselab-mdp,1
"[3837, 4509, 5237]","[u'up', u'up', u'right']",train_basic,,,,"[u'0', u'1', u'2', u'3']","{u'mouseover': {u'state': {u'target': [], u'time': []}, u'edge': {u'target': [], u'time': []}}, u'click': {u'state': {u'target': [], u'time': []}, u'edge': {u'target': [], u'time': []}}, u'mouseout': {u'state': {u'target': [], u'time': []}, u'edge': {u'target': [], u'time': []}}}",,,"[5, -10, 10]","[3829, 130, 178]",5.0,"[None, None, None]",,92289,9.0,8.892810546696874e+17,mouselab-mdp,1
"[7276, 7844, 9413]","[u'up', u'up', u'left']",train_hidden,,,,"[u'0', u'1', u'2', u'4']","{u'mouseover': {u'state': {u'target': [], u'time': []}, u'edge': {u'target': [], u'time': []}}, u'click': {u'state': {u'target': [], u'time': []}, u'edge': {u'target': [], u'time': []}}, u'mouseout': {u'state': {u'target': [], u'time': []}, u'edge': {u'target': [], u'time': []}}}",,,"[-10, -10, 5]","[7267, 10, 1002]",-15.0,"[None, None, None]",,106383,10.0,5.015924348765825e+18,mouselab-mdp,1
"[592, 1255, 2001]","[u'right', u'right', u'up']",train_hidden,,,,"[u'0', u'5', u'6', u'7']","{u'mouseover': {u'state': {u'target': [], u'time': []}, u'edge': {u'target': [], u'time': []}}, u'click': {u'state': {u'target': [], u'time': []}, u'edge': {u'target': [], u'time': []}}, u'mouseout': {u'state': {u'target': [], u'time': []}, u'edge': {u'target': [], u'time': []}}}",,,"[10, -10, 10]","[584, 125, 173]",10.0,"[None, None, None]",,110684,11.0,4.49272063618337e+18,mouselab-mdp,1
"[526, 1229, 1894]","[u'right', u'right', u'down']",train_hidden,,,,"[u'0', u'5', u'6', u'8']","{u'mouseover': {u'state': {u'target': [], u'time': []}, u'edge': {u'target': [], u'time': []}}, u'click': {u'state': {u'target': [], u'time': []}, u'edge': {u'target': [], u'time': []}}, u'mouseout': {u'state': {u'target': [], u'time': []}, u'edge': {u'target': [], u'time': []}}}",,,"[-5, 5, -10]","[517, 114, 106]",-10.0,"[None, None, None]",,114775,12.0,1.0328961532146797e+17,mouselab-mdp,1
"[572, 1290, 2095]","[u'left', u'left', u'down']",train_hidden,,,,"[u'0', u'9', u'10', u'12']","{u'mouseover': {u'state': {u'target': [], u'time': []}, u'edge': {u'target': [], u'time': []}}, u'click': {u'state': {u'target': [], u'time': []}, u'edge': {u'target': [], u'time': []}}, u'mouseout': {u'state': {u'target': [], u'time': []}, u'edge': {u'target': [], u'time': []}}}",,,"[10, -5, -5]","[564, 163, 260]",0.0,"[None, None, None]",,119274,13.0,-8.685761292807083e+18,mouselab-mdp,1
"[624, 1279, 2800]","[u'up', u'up', u'left']",train_hidden,,,,"[u'0', u'1', u'2', u'4']","{u'mouseover': {u'state': {u'target': [], u'time': []}, u'edge': {u'target': [], u'time': []}}, u'click': {u'state': {u'target': [], u'time': []}, u'edge': {u'target': [], u'time': []}}, u'mouseout': {u'state': {u'target': [], u'time': []}, u'edge': {u'target': [], u'time': []}}}",,,"[10, -10, -10]","[616, 60, 973]",-10.0,"[None, None, None]",,124318,14.0,7.211868466475451e+18,mouselab-mdp,1
"[21175, 21735, 23121]","[u'up', u'up', u'left']",train_inspector,,,,"[u'0', u'1', u'2', u'4']","{u'mouseover': {u'state': {u'target': [], u'time': []}, u'edge': {u'target': [], u'time': []}}, u'click': {u'state': {u'target': [u'5', u'7', u'3', u'4', u'11', u'9', u'12', u'1', u'2'], u'time': [8570, 9671, 10972, 11811, 14215, 16322, 18142, 19316, 20286]}, u'edge': {u'target': [], u'time': []}}, u'mouseout': {u'state': {u'target': [], u'time': []}, u'edge': {u'target': [], u'time': []}}}",,,"[10, -10, 10]","[21167, 4, 817]",10.0,"[None, None, None]",,152755,15.0,7.434111409514572e+18,mouselab-mdp,1
"[10213, 11316, 11998]","[u'up', u'up', u'left']",train_inspector,,,,"[u'0', u'1', u'2', u'4']","{u'mouseover': {u'state': {u'target': [], u'time': []}, u'edge': {u'target': [], u'time': []}}, u'click': {u'state': {u'target': [u'1', u'4', u'11', u'12', u'9', u'8', u'5', u'7'], u'time': [1610, 3265, 4192, 4955, 5727, 6947, 7813, 8563]}, u'edge': {u'target': [], u'time': []}}, u'mouseout': {u'state': {u'target': [], u'time': []}, u'edge': {u'target': [], u'time': []}}}",,,"[5, 5, 10]","[10203, 541, 140]",20.0,"[None, None, None]",,166887,16.0,-8.208271881207171e+18,mouselab-mdp,1
"[13651, 14346, 15122]","[u'right', u'right', u'up']",train_inspector,,,,"[u'0', u'5', u'6', u'7']","{u'mouseover': {u'state': {u'target': [], u'time': []}, u'edge': {u'target': [], u'time': []}}, u'click': {u'state': {u'target': [u'3', u'4', u'11', u'12', u'9', u'8', u'7', u'5', u'6', u'10'], u'time': [1634, 2486, 3520, 4289, 5643, 7149, 8952, 10163, 10978, 12021]}, u'edge': {u'target': [], u'time': []}}, u'mouseout': {u'state': {u'target': [], u'time': []}, u'edge': {u'target': [], u'time': []}}}",,,"[10, 5, 5]","[13642, 94, 207]",20.0,"[None, None, None]",,184245,17.0,-7.299700932651748e+18,mouselab-mdp,1
"[11920, 12514, 13105]","[u'up', u'up', u'left']",train_inspector,,,,"[u'0', u'1', u'2', u'4']","{u'mouseover': {u'state': {u'target': [], u'time': []}, u'edge': {u'target': [], u'time': []}}, u'click': {u'state': {u'target': [u'11', u'12', u'4', u'1', u'2', u'3', u'6', u'8', u'7', u'5'], u'time': [2318, 3185, 3937, 4994, 5782, 6395, 8186, 8729, 9679, 10579]}, u'edge': {u'target': [], u'time': []}}, u'mouseout': {u'state': {u'target': [], u'time': []}, u'edge': {u'target': [], u'time': []}}}",,,"[-10, 10, 10]","[11911, 49, 34]",10.0,"[None, None, None]",,199515,18.0,4.339880646647608e+18,mouselab-mdp,1
"[8095, 8692, 9367]","[u'left', u'left', u'up']",train_inspector,,,,"[u'0', u'9', u'10', u'11']","{u'mouseover': {u'state': {u'target': [], u'time': []}, u'edge': {u'target': [], u'time': []}}, u'click': {u'state': {u'target': [u'4', u'3', u'7', u'8', u'12', u'11', u'9', u'10'], u'time': [1030, 1836, 2574, 3324, 4034, 5387, 6309, 6918]}, u'edge': {u'target': [], u'time': []}}, u'mouseout': {u'state': {u'target': [], u'time': []}, u'edge': {u'target': [], u'time': []}}}",,,"[5, -10, 10]","[8083, 18, 72]",5.0,"[None, None, None]",,210933,19.0,-3.334411552997521e+18,mouselab-mdp,1
"[9782, 10503, 11159]","[u'up', u'up', u'left']",train_inspect_cost,,,,"[u'0', u'1', u'2', u'4']","{u'mouseover': {u'state': {u'target': [], u'time': []}, u'edge': {u'target': [], u'time': []}}, u'click': {u'state': {u'target': [], u'time': []}, u'edge': {u'target': [], u'time': []}}, u'mouseout': {u'state': {u'target': [], u'time': []}, u'edge': {u'target': [], u'time': []}}}",,,"[-10, -5, 5]","[9769, 167, 114]",-10.0,"[None, None, None]",,226829,20.0,9.041022091974375e+18,mouselab-mdp,1
"[584, 1458, 2279]","[u'right', u'right', u'down']",train_inspect_cost,,,,"[u'0', u'5', u'6', u'8']","{u'mouseover': {u'state': {u'target': [], u'time': []}, u'edge': {u'target': [], u'time': []}}, u'click': {u'state': {u'target': [], u'time': []}, u'edge': {u'target': [], u'time': []}}, u'mouseout': {u'state': {u'target': [], u'time': []}, u'edge': {u'target': [], u'time': []}}}",,,"[10, -10, 5]","[575, 188, 272]",5.0,"[None, None, None]",,231358,21.0,-3.8790525829275725e+17,mouselab-mdp,1
"[573, 1318, 2226]","[u'left', u'left', u'down']",train_inspect_cost,,,,"[u'0', u'9', u'10', u'12']","{u'mouseover': {u'state': {u'target': [], u'time': []}, u'edge': {u'target': [], u'time': []}}, u'click': {u'state': {u'target': [], u'time': []}, u'edge': {u'target': [], u'time': []}}, u'mouseout': {u'state': {u'target': [], u'time': []}, u'edge': {u'target': [], u'time': []}}}",,,"[5, 10, 5]","[566, 150, 320]",20.0,"[None, None, None]",,235932,22.0,4.842692465290208e+18,mouselab-mdp,1
"[2260, 3001, 4165]","[u'left', u'left', u'up']",train_inspect_cost,,,,"[u'0', u'9', u'10', u'11']","{u'mouseover': {u'state': {u'target': [], u'time': []}, u'edge': {u'target': [], u'time': []}}, u'click': {u'state': {u'target': [], u'time': []}, u'edge': {u'target': [], u'time': []}}, u'mouseout': {u'state': {u'target': [], u'time': []}, u'edge': {u'target': [], u'time': []}}}",,,"[-10, 10, 10]","[2253, 186, 594]",10.0,"[None, None, None]",,242498,23.0,-6.72824086845133e+18,mouselab-mdp,1
"[427, 1188, 2014]","[u'left', u'left', u'down']",train_inspect_cost,,,,"[u'0', u'9', u'10', u'12']","{u'mouseover': {u'state': {u'target': [], u'time': []}, u'edge': {u'target': [], u'time': []}}, u'click': {u'state': {u'target': [], u'time': []}, u'edge': {u'target': [], u'time': []}}, u'mouseout': {u'state': {u'target': [], u'time': []}, u'edge': {u'target': [], u'time': []}}}",,,"[-10, 5, -5]","[420, 201, 255]",-10.0,"[None, None, None]",,246884,24.0,-5.630369455004455e+18,mouselab-mdp,1
"[9716, 10611, 11187]","[u'up', u'up', u'left']",train_final,,,,"[u'0', u'1', u'2', u'4']","{u'mouseover': {u'state': {u'target': [], u'time': []}, u'edge': {u'target': [], u'time': []}}, u'click': {u'state': {u'target': [], u'time': []}, u'edge': {u'target': [], u'time': []}}, u'mouseout': {u'state': {u'target': [], u'time': []}, u'edge': {u'target': [], u'time': []}}}",,,"[-5, -10, 10]","[9710, 347, 19]",-5.0,"[None, None, None]",,262433,25.0,-7.125102216625555e+18,mouselab-mdp,1
"[804, 1472, 2175]","[u'right', u'right', u'down']",train_final,,,,"[u'0', u'5', u'6', u'8']","{u'mouseover': {u'state': {u'target': [], u'time': []}, u'edge': {u'target': [], u'time': []}}, u'click': {u'state': {u'target': [], u'time': []}, u'edge': {u'target': [], u'time': []}}, u'mouseout': {u'state': {u'target': [], u'time': []}, u'edge': {u'target': [], u'time': []}}}",,,"[-10, -10, 5]","[794, 123, 159]",-15.0,"[None, None, None]",,267087,26.0,7.91556335598923e+18,mouselab-mdp,1
"[365, 1118, 1923]","[u'left', u'left', u'down']",train_final,,,,"[u'0', u'9', u'10', u'12']","{u'mouseover': {u'state': {u'target': [], u'time': []}, u'edge': {u'target': [], u'time': []}}, u'click': {u'state': {u'target': [], u'time': []}, u'edge': {u'target': [], u'time': []}}, u'mouseout': {u'state': {u'target': [], u'time': []}, u'edge': {u'target': [], u'time': []}}}",,,"[-5, 5, 5]","[359, 156, 199]",5.0,"[None, None, None]",,271223,27.0,-6.552867048006103e+18,mouselab-mdp,1
"[491, 1240, 2111]","[u'up', u'up', u'left']",train_final,,,,"[u'0', u'1', u'2', u'4']","{u'mouseover': {u'state': {u'target': [], u'time': []}, u'edge': {u'target': [], u'time': []}}, u'click': {u'state': {u'target': [], u'time': []}, u'edge': {u'target': [], u'time': []}}, u'mouseout': {u'state': {u'target': [], u'time': []}, u'edge': {u'target': [], u'time': []}}}",,,"[10, 10, 10]","[483, 195, 306]",30.0,"[None, None, None]",,275633,28.0,7.502188167921001e+17,mouselab-mdp,1
"[481, 1203, 1869]","[u'up', u'up', u'right']",train_final,,,,"[u'0', u'1', u'2', u'3']","{u'mouseover': {u'state': {u'target': [], u'time': []}, u'edge': {u'target': [], u'time': []}}, u'click': {u'state': {u'target': [], u'time': []}, u'edge': {u'target': [], u'time': []}}, u'mouseout': {u'state': {u'target': [], u'time': []}, u'edge': {u'target': [], u'time': []}}}",,,"[10, 10, 10]","[472, 170, 98]",30.0,"[None, None, None]",,279661,29.0,6.300325444535346e+18,mouselab-mdp,1
"[1725, 2548, 3221]","[u'left', u'left', u'down']",test,,,,"[u'0', u'9', u'10', u'12']","{u'mouseover': {u'state': {u'target': [], u'time': []}, u'edge': {u'target': [], u'time': []}}, u'click': {u'state': {u'target': [], u'time': []}, u'edge': {u'target': [], u'time': []}}, u'mouseout': {u'state': {u'target': [], u'time': []}, u'edge': {u'target': [], u'time': []}}}",,,"[-10, 5, 10]","[1716, 259, 86]",5.0,"[None, None, None]",,309079,30.0,-3.5260456632436096e+17,mouselab-mdp,1
"[646, 1326, 2245]","[u'up', u'up', u'left']",test,,,,"[u'0', u'1', u'2', u'4']","{u'mouseover': {u'state': {u'target': [], u'time': []}, u'edge': {u'target': [], u'time': []}}, u'click': {u'state': {u'target': [], u'time': []}, u'edge': {u'target': [], u'time': []}}, u'mouseout': {u'state': {u'target': [], u'time': []}, u'edge': {u'target': [], u'time': []}}}",,,"[5, 10, -10]","[638, 128, 377]",5.0,"[None, None, None]",,313679,31.0,6.142163930824438e+17,mouselab-mdp,1
"[683, 1433, 2170]","[u'up', u'up', u'right']",test,,,,"[u'0', u'1', u'2', u'3']","{u'mouseover': {u'state': {u'target': [], u'time': []}, u'edge': {u'target': [], u'time': []}}, u'click': {u'state': {u'target': [], u'time': []}, u'edge': {u'target': [], u'time': []}}, u'mouseout': {u'state': {u'target': [], u'time': []}, u'edge': {u'target': [], u'time': []}}}",,,"[-5, -5, -10]","[675, 184, 182]",-20.0,"[None, None, None]",,318267,32.0,3.079720304695456e+18,mouselab-mdp,1
"[886, 1716, 2772]","[u'right', u'right', u'down']",test,,,,"[u'0', u'5', u'6', u'8']","{u'mouseover': {u'state': {u'target': [], u'time': []}, u'edge': {u'target': [], u'time': []}}, u'click': {u'state': {u'target': [], u'time': []}, u'edge': {u'target': [], u'time': []}}, u'mouseout': {u'state': {u'target': [], u'time': []}, u'edge': {u'target': [], u'time': []}}}",,,"[10, -5, -10]","[877, 260, 461]",-5.0,"[None, None, None]",,323394,33.0,4.79729195570316e+18,mouselab-mdp,1
"[879, 1556, 2618]","[u'left', u'left', u'up']",test,,,,"[u'0', u'9', u'10', u'11']","{u'mouseover': {u'state': {u'target': [], u'time': []}, u'edge': {u'target': [], u'time': []}}, u'click': {u'state': {u'target': [], u'time': []}, u'edge': {u'target': [], u'time': []}}, u'mouseout': {u'state': {u'target': [], u'time': []}, u'edge': {u'target': [], u'time': []}}}",,,"[-10, -5, 5]","[871, 131, 455]",-10.0,"[None, None, None]",,328330,34.0,3.812331254939213e+18,mouselab-mdp,1
"[1527, 2299, 3213]","[u'left', u'left', u'down']",test,,,,"[u'0', u'9', u'10', u'12']","{u'mouseover': {u'state': {u'target': [], u'time': []}, u'edge': {u'target': [], u'time': []}}, u'click': {u'state': {u'target': [], u'time': []}, u'edge': {u'target': [], u'time': []}}, u'mouseout': {u'state': {u'target': [], u'time': []}, u'edge': {u'target': [], u'time': []}}}",,,"[-10, 10, -10]","[1519, 162, 330]",-10.0,"[None, None, None]",,333789,35.0,-8.485306912601427e+16,mouselab-mdp,1
"[359, 1056, 1786]","[u'up', u'up', u'left']",test,,,,"[u'0', u'1', u'2', u'4']","{u'mouseover': {u'state': {u'target': [], u'time': []}, u'edge': {u'target': [], u'time': []}}, u'click': {u'state': {u'target': [], u'time': []}, u'edge': {u'target': [], u'time': []}}, u'mouseout': {u'state': {u'target': [], u'time': []}, u'edge': {u'target': [], u'time': []}}}",,,"[-10, 5, -10]","[350, 152, 129]",-15.0,"[None, None, None]",,338073,36.0,-4.063481521815622e+18,mouselab-mdp,1
"[484, 1237, 2135]","[u'up', u'up', u'right']",test,,,,"[u'0', u'1', u'2', u'3']","{u'mouseover': {u'state': {u'target': [], u'time': []}, u'edge': {u'target': [], u'time': []}}, u'click': {u'state': {u'target': [], u'time': []}, u'edge': {u'target': [], u'time': []}}, u'mouseout': {u'state': {u'target': [], u'time': []}, u'edge': {u'target': [], u'time': []}}}",,,"[10, 10, 5]","[467, 157, 364]",25.0,"[None, None, None]",,342685,37.0,2.0031782822548767e+18,mouselab-mdp,1
"[569, 1453, 2330]","[u'up', u'up', u'left']",test,,,,"[u'0', u'1', u'2', u'4']","{u'mouseover': {u'state': {u'target': [], u'time': []}, u'edge': {u'target': [], u'time': []}}, u'click': {u'state': {u'target': [], u'time': []}, u'edge': {u'target': [], u'time': []}}, u'mouseout': {u'state': {u'target': [], u'time': []}, u'edge': {u'target': [], u'time': []}}}",,,"[-5, 5, -5]","[542, 285, 314]",-5.0,"[None, None, None]",,347834,38.0,5.439632916575948e+18,mouselab-mdp,1
"[1347, 2101, 3021]","[u'right', u'right', u'up']",test,,,,"[u'0', u'5', u'6', u'7']","{u'mouseover': {u'state': {u'target': [], u'time': []}, u'edge': {u'target': [], u'time': []}}, u'click': {u'state': {u'target': [], u'time': []}, u'edge': {u'target': [], u'time': []}}, u'mouseout': {u'state': {u'target': [], u'time': []}, u'edge': {u'target': [], u'time': []}}}",,,"[5, -10, 10]","[1339, 210, 354]",5.0,"[None, None, None]",,353275,39.0,7.553211965372142e+18,mouselab-mdp,1
"[517, 1327, 2083]","[u'right', u'right', u'down']",test,,,,"[u'0', u'5', u'6', u'8']","{u'mouseover': {u'state': {u'target': [], u'time': []}, u'edge': {u'target': [], u'time': []}}, u'click': {u'state': {u'target': [], u'time': []}, u'edge': {u'target': [], u'time': []}}, u'mouseout': {u'state': {u'target': [], u'time': []}, u'edge': {u'target': [], u'time': []}}}",,,"[-10, 10, -10]","[507, 263, 180]",-10.0,"[None, None, None]",,357667,40.0,5.724401768725425e+18,mouselab-mdp,1
"[413, 1112, 2066]","[u'left', u'left', u'up']",test,,,,"[u'0', u'9', u'10', u'11']","{u'mouseover': {u'state': {u'target': [], u'time': []}, u'edge': {u'target': [], u'time': []}}, u'click': {u'state': {u'target': [], u'time': []}, u'edge': {u'target': [], u'time': []}}, u'mouseout': {u'state': {u'target': [], u'time': []}, u'edge': {u'target': [], u'time': []}}}",,,"[5, 5, -5]","[403, 118, 339]",5.0,"[None, None, None]",,362041,41.0,2.5857685737037445e+18,mouselab-mdp,1
"[325, 1003, 1962]","[u'left', u'left', u'down']",test,,,,"[u'0', u'9', u'10', u'12']","{u'mouseover': {u'state': {u'target': [], u'time': []}, u'edge': {u'target': [], u'time': []}}, u'click': {u'state': {u'target': [], u'time': []}, u'edge': {u'target': [], u'time': []}}, u'mouseout': {u'state': {u'target': [], u'time': []}, u'edge': {u'target': [], u'time': []}}}",,,"[10, 10, 10]","[315, 80, 367]",30.0,"[None, None, None]",,366184,42.0,-1.5846922163129664e+18,mouselab-mdp,1
"[455, 1202, 3551]","[u'left', u'left', u'down']",test,,,,"[u'0', u'9', u'10', u'12']","{u'mouseover': {u'state': {u'target': [], u'time': []}, u'edge': {u'target': [], u'time': []}}, u'click': {u'state': {u'target': [], u'time': []}, u'edge': {u'target': [], u'time': []}}, u'mouseout': {u'state': {u'target': [], u'time': []}, u'edge': {u'target': [], u'time': []}}}",,,"[10, -5, -10]","[443, 160, 1795]",-5.0,"[None, None, None]",,372048,43.0,7.868762594467914e+18,mouselab-mdp,1
"[419, 1129, 1805]","[u'up', u'up', u'left']",test,,,,"[u'0', u'1', u'2', u'4']","{u'mouseover': {u'state': {u'target': [], u'time': []}, u'edge': {u'target': [], u'time': []}}, u'click': {u'state': {u'target': [], u'time': []}, u'edge': {u'target': [], u'time': []}}, u'mouseout': {u'state': {u'target': [], u'time': []}, u'edge': {u'target': [], u'time': []}}}",,,"[-10, -5, 5]","[406, 162, 110]",-10.0,"[None, None, None]",,376001,44.0,-2.6765330699051464e+18,mouselab-mdp,1
"[398, 1084, 1751]","[u'up', u'up', u'right']",test,,,,"[u'0', u'1', u'2', u'3']","{u'mouseover': {u'state': {u'target': [], u'time': []}, u'edge': {u'target': [], u'time': []}}, u'click': {u'state': {u'target': [], u'time': []}, u'edge': {u'target': [], u'time': []}}, u'mouseout': {u'state': {u'target': [], u'time': []}, u'edge': {u'target': [], u'time': []}}}",,,"[-10, -5, 5]","[391, 126, 97]",-10.0,"[None, None, None]",,379935,45.0,-8.430627562648791e+18,mouselab-mdp,1
"[247, 1016, 1742]","[u'left', u'left', u'up']",test,,,,"[u'0', u'9', u'10', u'11']","{u'mouseover': {u'state': {u'target': [], u'time': []}, u'edge': {u'target': [], u'time': []}}, u'click': {u'state': {u'target': [], u'time': []}, u'edge': {u'target': [], u'time': []}}, u'mouseout': {u'state': {u'target': [], u'time': []}, u'edge': {u'target': [], u'time': []}}}",,,"[-10, 10, 10]","[238, 185, 176]",10.0,"[None, None, None]",,384068,46.0,1.532043097573411e+18,mouselab-mdp,1
"[347, 1194, 2089]","[u'left', u'left', u'down']",test,,,,"[u'0', u'9', u'10', u'12']","{u'mouseover': {u'state': {u'target': [], u'time': []}, u'edge': {u'target': [], u'time': []}}, u'click': {u'state': {u'target': [], u'time': []}, u'edge': {u'target': [], u'time': []}}, u'mouseout': {u'state': {u'target': [], u'time': []}, u'edge': {u'target': [], u'time': []}}}",,,"[-10, 10, -10]","[340, 255, 337]",-10.0,"[None, None, None]",,388378,47.0,2.702860947760116e+18,mouselab-mdp,1
"[254, 911, 1540]","[u'right', u'right', u'down']",test,,,,"[u'0', u'5', u'6', u'8']","{u'mouseover': {u'state': {u'target': [], u'time': []}, u'edge': {u'target': [], u'time': []}}, u'click': {u'state': {u'target': [], u'time': []}, u'edge': {u'target': [], u'time': []}}, u'mouseout': {u'state': {u'target': [], u'time': []}, u'edge': {u'target': [], u'time': []}}}",,,"[-5, 10, -5]","[243, 109, 88]",0.0,"[None, None, None]",,391977,48.0,-8.661724116053019e+18,mouselab-mdp,1
"[303, 983, 1672]","[u'left', u'left', u'up']",test,,,,"[u'0', u'9', u'10', u'11']","{u'mouseover': {u'state': {u'target': [], u'time': []}, u'edge': {u'target': [], u'time': []}}, u'click': {u'state': {u'target': [], u'time': []}, u'edge': {u'target': [], u'time': []}}, u'mouseout': {u'state': {u'target': [], u'time': []}, u'edge': {u'target': [], u'time': []}}}",,,"[-10, 10, -5]","[293, 132, 146]",-5.0,"[None, None, None]",,395792,49.0,-5.559450979544907e+18,mouselab-mdp,1
"[23407, 24292, 25132]","[u'up', u'up', u'left']",train_basic,,,,"[u'0', u'1', u'2', u'4']","{u'mouseover': {u'state': {u'target': [], u'time': []}, u'edge': {u'target': [], u'time': []}}, u'click': {u'state': {u'target': [], u'time': []}, u'edge': {u'target': [], u'time': []}}, u'mouseout': {u'state': {u'target': [], u'time': []}, u'edge': {u'target': [], u'time': []}}}",,,"[10, 10, 5]","[23403, 377, 342]",25.0,"[None, None, None]",,26783,0.0,4.621247487711653e+18,mouselab-mdp,2
"[9696, 10357, 11038]","[u'left', u'left', u'up']",train_basic,,,,"[u'0', u'9', u'10', u'11']","{u'mouseover': {u'state': {u'target': [], u'time': []}, u'edge': {u'target': [], u'time': []}}, u'click': {u'state': {u'target': [], u'time': []}, u'edge': {u'target': [], u'time': []}}, u'mouseout': {u'state': {u'target': [], u'time': []}, u'edge': {u'target': [], u'time': []}}}",,,"[10, 5, 10]","[9695, 159, 179]",25.0,"[None, None, None]",,40054,1.0,-6.909700207174625e+18,mouselab-mdp,2
"[5949, 6629, 7229]","[u'up', u'up', u'right']",train_basic,,,,"[u'0', u'1', u'2', u'3']","{u'mouseover': {u'state': {u'target': [], u'time': []}, u'edge': {u'target': [], u'time': []}}, u'click': {u'state': {u'target': [], u'time': []}, u'edge': {u'target': [], u'time': []}}, u'mouseout': {u'state': {u'target': [], u'time': []}, u'edge': {u'target': [], u'time': []}}}",,,"[10, -10, 10]","[5948, 178, 96]",10.0,"[None, None, None]",,49462,2.0,-5.0462050224693914e+17,mouselab-mdp,2
"[2395, 3044, 3764]","[u'left', u'left', u'up']",train_basic,,,,"[u'0', u'9', u'10', u'11']","{u'mouseover': {u'state': {u'target': [], u'time': []}, u'edge': {u'target': [], u'time': []}}, u'click': {u'state': {u'target': [], u'time': []}, u'edge': {u'target': [], u'time': []}}, u'mouseout': {u'state': {u'target': [], u'time': []}, u'edge': {u'target': [], u'time': []}}}",,,"[10, 10, 5]","[2393, 146, 219]",25.0,"[None, None, None]",,55454,3.0,8.829151516447664e+18,mouselab-mdp,2
"[2709, 3268, 3989]","[u'up', u'up', u'right']",train_basic,,,,"[u'0', u'1', u'2', u'3']","{u'mouseover': {u'state': {u'target': [], u'time': []}, u'edge': {u'target': [], u'time': []}}, u'click': {u'state': {u'target': [], u'time': []}, u'edge': {u'target': [], u'time': []}}, u'mouseout': {u'state': {u'target': [], u'time': []}, u'edge': {u'target': [], u'time': []}}}",,,"[10, 10, 10]","[2708, 53, 218]",30.0,"[None, None, None]",,61494,4.0,7.553211965372142e+18,mouselab-mdp,2
"[4113, 5487, 6233]","[u'left', u'left', u'up']",train_basic,,,,"[u'0', u'9', u'10', u'11']","{u'mouseover': {u'state': {u'target': [], u'time': []}, u'edge': {u'target': [], u'time': []}}, u'click': {u'state': {u'target': [], u'time': []}, u'edge': {u'target': [], u'time': []}}, u'mouseout': {u'state': {u'target': [], u'time': []}, u'edge': {u'target': [], u'time': []}}}",,,"[5, 10, -5]","[4111, 869, 242]",10.0,"[None, None, None]",,69751,5.0,-7.125102216625555e+18,mouselab-mdp,2
"[4712, 5350, 5984]","[u'right', u'right', u'down']",train_basic,,,,"[u'0', u'5', u'6', u'8']","{u'mouseover': {u'state': {u'target': [], u'time': []}, u'edge': {u'target': [], u'time': []}}, u'click': {u'state': {u'target': [], u'time': []}, u'edge': {u'target': [], u'time': []}}, u'mouseout': {u'state': {u'target': [], u'time': []}, u'edge': {u'target': [], u'time': []}}}",,,"[-10, 5, 10]","[4711, 136, 129]",5.0,"[None, None, None]",,77774,6.0,7.434111409514572e+18,mouselab-mdp,2
"[6230, 6821, 7452]","[u'right', u'right', u'up']",train_basic,,,,"[u'0', u'5', u'6', u'7']","{u'mouseover': {u'state': {u'target': [], u'time': []}, u'edge': {u'target': [], u'time': []}}, u'click': {u'state': {u'target': [], u'time': []}, u'edge': {u'target': [], u'time': []}}, u'mouseout': {u'state': {u'target': [], u'time': []}, u'edge': {u'target': [], u'time': []}}}",,,"[10, -5, 10]","[6228, 85, 128]",15.0,"[None, None, None]",,87196,7.0,-3.506160317620679e+18,mouselab-mdp,2
"[8291, 8826, 9430]","[u'right', u'right', u'up']",train_basic,,,,"[u'0', u'5', u'6', u'7']","{u'mouseover': {u'state': {u'target': [], u'time': []}, u'edge': {u'target': [], u'time': []}}, u'click': {u'state': {u'target': [], u'time': []}, u'edge': {u'target': [], u'time': []}}, u'mouseout': {u'state': {u'target': [], u'time': []}, u'edge': {u'target': [], u'time': []}}}",,,"[5, -10, 10]","[8289, 34, 102]",5.0,"[None, None, None]",,99950,8.0,3.6370751421926886e+18,mouselab-mdp,2
"[3924, 4556, 5347]","[u'up', u'up', u'right']",train_basic,,,,"[u'0', u'1', u'2', u'3']","{u'mouseover': {u'state': {u'target': [], u'time': []}, u'edge': {u'target': [], u'time': []}}, u'click': {u'state': {u'target': [], u'time': []}, u'edge': {u'target': [], u'time': []}}, u'mouseout': {u'state': {u'target': [], u'time': []}, u'edge': {u'target': [], u'time': []}}}",,,"[-10, 10, 10]","[3922, 123, 288]",10.0,"[None, None, None]",,107852,9.0,-3.06599297092415e+18,mouselab-mdp,2
"[8067, 8730, 9849]","[u'up', u'up', u'right']",train_hidden,,,,"[u'0', u'1', u'2', u'3']","{u'mouseover': {u'state': {u'target': [], u'time': []}, u'edge': {u'target': [], u'time': []}}, u'click': {u'state': {u'target': [], u'time': []}, u'edge': {u'target': [], u'time': []}}, u'mouseout': {u'state': {u'target': [], u'time': []}, u'edge': {u'target': [], u'time': []}}}",,,"[10, -5, 10]","[8065, 156, 621]",15.0,"[None, None, None]",,123006,10.0,7.91556335598923e+18,mouselab-mdp,2
"[2226, 2851, 3602]","[u'left', u'left', u'up']",train_hidden,,,,"[u'0', u'9', u'10', u'11']","{u'mouseover': {u'state': {u'target': [], u'time': []}, u'edge': {u'target': [], u'time': []}}, u'click': {u'state': {u'target': [], u'time': []}, u'edge': {u'target': [], u'time': []}}, u'mouseout': {u'state': {u'target': [], u'time': []}, u'edge': {u'target': [], u'time': []}}}",,,"[-10, -10, -5]","[2226, 119, 250]",-25.0,"[None, None, None]",,128918,11.0,4.79729195570316e+18,mouselab-mdp,2
"[435, 1091, 1755]","[u'up', u'up', u'left']",train_hidden,,,,"[u'0', u'1', u'2', u'4']","{u'mouseover': {u'state': {u'target': [], u'time': []}, u'edge': {u'target': [], u'time': []}}, u'click': {u'state': {u'target': [], u'time': []}, u'edge': {u'target': [], u'time': []}}, u'mouseout': {u'state': {u'target': [], u'time': []}, u'edge': {u'target': [], u'time': []}}}",,,"[-10, -5, -5]","[434, 154, 165]",-20.0,"[None, None, None]",,132840,12.0,-6.552867048006103e+18,mouselab-mdp,2
"[1464, 2840, 4056]","[u'right', u'right', u'down']",train_hidden,,,,"[u'0', u'5', u'6', u'8']","{u'mouseover': {u'state': {u'target': [], u'time': []}, u'edge': {u'target': [], u'time': []}}, u'click': {u'state': {u'target': [], u'time': []}, u'edge': {u'target': [], u'time': []}}, u'mouseout': {u'state': {u'target': [], u'time': []}, u'edge': {u'target': [], u'time': []}}}",,,"[-5, 5, 10]","[1463, 872, 712]",10.0,"[None, None, None]",,139238,13.0,5.015924348765825e+18,mouselab-mdp,2
"[2585, 3911, 5150]","[u'up', u'up', u'left']",train_hidden,,,,"[u'0', u'1', u'2', u'4']","{u'mouseover': {u'state': {u'target': [], u'time': []}, u'edge': {u'target': [], u'time': []}}, u'click': {u'state': {u'target': [], u'time': []}, u'edge': {u'target': [], u'time': []}}, u'mouseout': {u'state': {u'target': [], u'time': []}, u'edge': {u'target': [], u'time': []}}}",,,"[5, 5, -5]","[2584, 818, 735]",5.0,"[None, None, None]",,147006,14.0,2.702860947760116e+18,mouselab-mdp,2
"[27225, 27784, 28425]","[u'right', u'right', u'down']",train_inspector,,,,"[u'0', u'5', u'6', u'8']","{u'mouseover': {u'state': {u'target': [], u'time': []}, u'edge': {u'target': [], u'time': []}}, u'click': {u'state': {u'target': [u'1', u'9', u'5', u'6', u'8', u'7', u'3', u'2', u'4', u'11', u'10', u'12'], u'time': [8677, 14699, 15678, 16722, 20968, 21974, 22568, 22892, 23290, 23880, 24363, 25759]}, u'edge': {u'target': [], u'time': []}}, u'mouseout': {u'state': {u'target': [], u'time': []}, u'edge': {u'target': [], u'time': []}}}",,,"[-5, 5, 10]","[27224, 52, 138]",10.0,"[None, None, None]",,179078,15.0,9.041022091974375e+18,mouselab-mdp,2
"[16305, 16846, 17511]","[u'right', u'right', u'up']",train_inspector,,,,"[u'0', u'5', u'6', u'7']","{u'mouseover': {u'state': {u'target': [], u'time': []}, u'edge': {u'target': [], u'time': []}}, u'click': {u'state': {u'target': [u'12', u'9', u'10', u'11', u'1', u'2', u'4', u'3', u'5', u'6', u'8', u'7'], u'time': [4127, 6683, 7547, 8226, 8817, 9418, 9975, 12116, 12922, 13478, 14282, 14955]}, u'edge': {u'target': [], u'time': []}}, u'mouseout': {u'state': {u'target': [], u'time': []}, u'edge': {u'target': [], u'time': []}}}",,,"[-5, 10, 10]","[16302, 41, 163]",15.0,"[None, None, None]",,198493,16.0,-8.430627562648791e+18,mouselab-mdp,2
"[14125, 14659, 15228]","[u'right', u'right', u'up']",train_inspector,,,,"[u'0', u'5', u'6', u'7']","{u'mouseover': {u'state': {u'target': [], u'time': []}, u'edge': {u'target': [], u'time': []}}, u'click': {u'state': {u'target': [u'1', u'2', u'4', u'3', u'7', u'6', u'8', u'9', u'10', u'11', u'12', u'5'], u'time': [1604, 3849, 4499, 5231, 5965, 6550, 7044, 8260, 8856, 9401, 10019, 11027]}, u'edge': {u'target': [], u'time': []}}, u'mouseout': {u'state': {u'target': [], u'time': []}, u'edge': {u'target': [], u'time': []}}}",,,"[5, 10, -5]","[14123, 29, 70]",10.0,"[None, None, None]",,215631,17.0,5.439632916575948e+18,mouselab-mdp,2
"[7631, 8302, 8918]","[u'up', u'up', u'right']",train_inspector,,,,"[u'0', u'1', u'2', u'3']","{u'mouseover': {u'state': {u'target': [], u'time': []}, u'edge': {u'target': [], u'time': []}}, u'click': {u'state': {u'target': [u'5', u'6', u'8', u'7', u'3', u'2', u'4', u'1'], u'time': [1514, 2600, 3293, 3919, 4617, 5128, 5651, 6514]}, u'edge': {u'target': [], u'time': []}}, u'mouseout': {u'state': {u'target': [], u'time': []}, u'edge': {u'target': [], u'time': []}}}",,,"[5, 10, 5]","[7630, 168, 116]",20.0,"[None, None, None]",,226543,18.0,6.995680039972448e+17,mouselab-mdp,2
"[16739, 17633, 18298]","[u'right', u'right', u'down']",train_inspector,,,,"[u'0', u'5', u'6', u'8']","{u'mouseover': {u'state': {u'target': [], u'time': []}, u'edge': {u'target': [], u'time': []}}, u'click': {u'state': {u'target': [u'1', u'2', u'3', u'4', u'6', u'7', u'5', u'8', u'9', u'10'], u'time': [2145, 2814, 3319, 3815, 4824, 5386, 12833, 13762, 14496, 15415]}, u'edge': {u'target': [], u'time': []}}, u'mouseout': {u'state': {u'target': [], u'time': []}, u'edge': {u'target': [], u'time': []}}}",,,"[5, 10, 10]","[16737, 394, 161]",25.0,"[None, None, None]",,246790,19.0,1.532043097573411e+18,mouselab-mdp,2
"[25747, 26354, 26978]","[u'up', u'up', u'left']",train_inspect_cost,,,,"[u'0', u'1', u'2', u'4']","{u'mouseover': {u'state': {u'target': [], u'time': []}, u'edge': {u'target': [], u'time': []}}, u'click': {u'state': {u'target': [u'7', u'3', u'4', u'2'], u'time': [19435, 22167, 22995, 24769]}, u'edge': {u'target': [], u'time': []}}, u'mouseout': {u'state': {u'target': [], u'time': []}, u'edge': {u'target': [], u'time': []}}}",,,"[-10, 5, 10]","[25746, 108, 120]",1.0,"[None, None, None]",,277582,20.0,2.5857685737037445e+18,mouselab-mdp,2
"[7661, 8252, 8916]","[u'up', u'up', u'left']",train_inspect_cost,,,,"[u'0', u'1', u'2', u'4']","{u'mouseover': {u'state': {u'target': [], u'time': []}, u'edge': {u'target': [], u'time': []}}, u'click': {u'state': {u'target': [u'1', u'2', u'4', u'3'], u'time': [2970, 5191, 5758, 6882]}, u'edge': {u'target': [], u'time': []}}, u'mouseout': {u'state': {u'target': [], u'time': []}, u'edge': {u'target': [], u'time': []}}}",,,"[-5, 5, 10]","[7659, 93, 166]",6.0,"[None, None, None]",,288477,21.0,-3.8790525829275725e+17,mouselab-mdp,2
"[9317, 9926, 11038]","[u'right', u'right', u'down']",train_inspect_cost,,,,"[u'0', u'5', u'6', u'8']","{u'mouseover': {u'state': {u'target': [], u'time': []}, u'edge': {u'target': [], u'time': []}}, u'click': {u'state': {u'target': [u'2', u'4', u'7', u'8', u'6', u'5'], u'time': [4061, 4682, 5956, 7400, 7996, 8481]}, u'edge': {u'target': [], u'time': []}}, u'mouseout': {u'state': {u'target': [], u'time': []}, u'edge': {u'target': [], u'time': []}}}",,,"[-5, 5, 10]","[9315, 105, 613]",4.0,"[None, None, None]",,301415,22.0,-3.9002272886410644e+18,mouselab-mdp,2
"[9520, 10248, 13014]","[u'up', u'up', u'left']",train_inspect_cost,,,,"[u'0', u'1', u'2', u'4']","{u'mouseover': {u'state': {u'target': [], u'time': []}, u'edge': {u'target': [], u'time': []}}, u'click': {u'state': {u'target': [u'11', u'12', u'8', u'7', u'4', u'3'], u'time': [1670, 2289, 3086, 4436, 5155, 5729]}, u'edge': {u'target': [], u'time': []}}, u'mouseout': {u'state': {u'target': [], u'time': []}, u'edge': {u'target': [], u'time': []}}}",,,"[-10, 10, 10]","[9519, 221, 2261]",4.0,"[None, None, None]",,316589,23.0,4.339880646647608e+18,mouselab-mdp,2
"[11539, 12115, 12716]","[u'right', u'right', u'up']",train_inspect_cost,,,,"[u'0', u'5', u'6', u'7']","{u'mouseover': {u'state': {u'target': [], u'time': []}, u'edge': {u'target': [], u'time': []}}, u'click': {u'state': {u'target': [u'4', u'3', u'7', u'8', u'11', u'12', u'6'], u'time': [1780, 2371, 3066, 4129, 5225, 5962, 10607]}, u'edge': {u'target': [], u'time': []}}, u'mouseout': {u'state': {u'target': [], u'time': []}, u'edge': {u'target': [], u'time': []}}}",,,"[-10, 10, 5]","[11538, 71, 98]",-2.0,"[None, None, None]",,331302,24.0,5.724401768725425e+18,mouselab-mdp,2
"[13715, 14299, 14922]","[u'left', u'left', u'up']",train_final,,,,"[u'0', u'9', u'10', u'11']","{u'mouseover': {u'state': {u'target': [], u'time': []}, u'edge': {u'target': [], u'time': []}}, u'click': {u'state': {u'target': [u'9', u'10', u'11'], u'time': [11500, 12459, 13027]}, u'edge': {u'target': [], u'time': []}}, u'mouseout': {u'state': {u'target': [], u'time': []}, u'edge': {u'target': [], u'time': []}}}",,,"[5, 5, 5]","[13715, 84, 125]",12.0,"[None, None, None]",,349927,25.0,7.502188167921001e+17,mouselab-mdp,2
"[13068, 14333, 15038]","[u'right', u'right', u'down']",train_final,,,,"[u'0', u'5', u'6', u'8']","{u'mouseover': {u'state': {u'target': [], u'time': []}, u'edge': {u'target': [], u'time': []}}, u'click': {u'state': {u'target': [u'11', u'12', u'8', u'6', u'7'], u'time': [527, 1501, 2213, 11292, 11930]}, u'edge': {u'target': [], u'time': []}}, u'mouseout': {u'state': {u'target': [], u'time': []}, u'edge': {u'target': [], u'time': []}}}",,,"[-10, 5, 10]","[13067, 760, 198]",0.0,"[None, None, None]",,367767,26.0,-3.5260456632436096e+17,mouselab-mdp,2
"[41997, 42700, 43356]","[u'left', u'left', u'down']",train_final,,,,"[u'0', u'9', u'10', u'12']","{u'mouseover': {u'state': {u'target': [], u'time': []}, u'edge': {u'target': [], u'time': []}}, u'click': {u'state': {u'target': [u'11', u'8', u'7', u'3', u'4', u'12'], u'time': [2478, 3581, 4358, 5644, 6269, 19273]}, u'edge': {u'target': [], u'time': []}}, u'mouseout': {u'state': {u'target': [], u'time': []}, u'edge': {u'target': [], u'time': []}}}",,,"[-10, 10, 10]","[41994, 202, 156]",4.0,"[None, None, None]",,413094,27.0,-5.559450979544907e+18,mouselab-mdp,2
"[4608, 5254, 5989]","[u'up', u'up', u'right']",train_final,,,,"[u'0', u'1', u'2', u'3']","{u'mouseover': {u'state': {u'target': [], u'time': []}, u'edge': {u'target': [], u'time': []}}, u'click': {u'state': {u'target': [u'2', u'4', u'3'], u'time': [2143, 2710, 3445]}, u'edge': {u'target': [], u'time': []}}, u'mouseout': {u'state': {u'target': [], u'time': []}, u'edge': {u'target': [], u'time': []}}}",,,"[10, 10, 10]","[4606, 146, 234]",27.0,"[None, None, None]",,420926,28.0,-5.799413076952947e+18,mouselab-mdp,2
"[4575, 5295, 6054]","[u'right', u'right', u'up']",train_final,,,,"[u'0', u'5', u'6', u'7']","{u'mouseover': {u'state': {u'target': [], u'time': []}, u'edge': {u'target': [], u'time': []}}, u'click': {u'state': {u'target': [u'3', u'4', u'7', u'6', u'5'], u'time': [1036, 1567, 2265, 3332, 3875]}, u'edge': {u'target': [], u'time': []}}, u'mouseout': {u'state': {u'target': [], u'time': []}, u'edge': {u'target': [], u'time': []}}}",,,"[10, 5, 10]","[4573, 210, 257]",20.0,"[None, None, None]",,428910,29.0,2.7573167158284186e+18,mouselab-mdp,2
"[8940, 9529, 10259]","[u'up', u'up', u'right']",test,,,,"[u'0', u'1', u'2', u'3']","{u'mouseover': {u'state': {u'target': [], u'time': []}, u'edge': {u'target': [], u'time': []}}, u'click': {u'state': {u'target': [u'9', u'11', u'5', u'7', u'8', u'3', u'4'], u'time': [1775, 2592, 3829, 4445, 5299, 6358, 6989]}, u'edge': {u'target': [], u'time': []}}, u'mouseout': {u'state': {u'target': [], u'time': []}, u'edge': {u'target': [], u'time': []}}}",,,"[5, 10, 10]","[8938, 83, 228]",18.0,"[None, None, None]",,482414,30.0,-7.824465990977061e+18,mouselab-mdp,2
"[7839, 8438, 9149]","[u'right', u'right', u'up']",test,,,,"[u'0', u'5', u'6', u'7']","{u'mouseover': {u'state': {u'target': [], u'time': []}, u'edge': {u'target': [], u'time': []}}, u'click': {u'state': {u'target': [u'3', u'4', u'7', u'6', u'5', u'8'], u'time': [1491, 2416, 3342, 5437, 5971, 6605]}, u'edge': {u'target': [], u'time': []}}, u'mouseout': {u'state': {u'target': [], u'time': []}, u'edge': {u'target': [], u'time': []}}}",,,"[10, -10, 10]","[7838, 85, 200]",4.0,"[None, None, None]",,493511,31.0,4.49272063618337e+18,mouselab-mdp,2
"[6371, 7235, 7976]","[u'up', u'up', u'right']",test,,,,"[u'0', u'1', u'2', u'3']","{u'mouseover': {u'state': {u'target': [], u'time': []}, u'edge': {u'target': [], u'time': []}}, u'click': {u'state': {u'target': [u'10', u'11', u'3', u'4', u'2'], u'time': [790, 1287, 2093, 3129, 5357]}, u'edge': {u'target': [], u'time': []}}, u'mouseout': {u'state': {u'target': [], u'time': []}, u'edge': {u'target': [], u'time': []}}}",,,"[-10, -5, 10]","[6369, 357, 238]",-10.0,"[None, None, None]",,503462,32.0,6.301694736193464e+17,mouselab-mdp,2
"[13503, 14086, 14711]","[u'right', u'right', u'down']",test,,,,"[u'0', u'5', u'6', u'8']","{u'mouseover': {u'state': {u'target': [], u'time': []}, u'edge': {u'target': [], u'time': []}}, u'click': {u'state': {u'target': [u'7', u'8', u'6', u'5', u'10', u'9', u'11', u'12', u'3', u'4'], u'time': [1352, 2115, 2809, 3359, 4683, 5122, 6642, 7324, 11260, 11809]}, u'edge': {u'target': [], u'time': []}}, u'mouseout': {u'state': {u'target': [], u'time': []}, u'edge': {u'target': [], u'time': []}}}",,,"[-5, 5, 5]","[13501, 81, 121]",-5.0,"[None, None, None]",,520063,33.0,-7.701717791270176e+18,mouselab-mdp,2
"[9900, 10524, 11229]","[u'left', u'left', u'up']",test,,,,"[u'0', u'9', u'10', u'11']","{u'mouseover': {u'state': {u'target': [], u'time': []}, u'edge': {u'target': [], u'time': []}}, u'click': {u'state': {u'target': [u'4', u'3', u'5', u'9', u'10', u'11'], u'time': [2926, 4581, 6206, 7391, 8247, 9004]}, u'edge': {u'target': [], u'time': []}}, u'mouseout': {u'state': {u'target': [], u'time': []}, u'edge': {u'target': [], u'time': []}}}",,,"[5, 10, 10]","[9899, 123, 202]",19.0,"[None, None, None]",,533197,34.0,4.842692465290208e+18,mouselab-mdp,2
"[4931, 5580, 6227]","[u'left', u'left', u'up']",test,,,,"[u'0', u'9', u'10', u'11']","{u'mouseover': {u'state': {u'target': [], u'time': []}, u'edge': {u'target': [], u'time': []}}, u'click': {u'state': {u'target': [u'11', u'10', u'7'], u'time': [768, 1644, 3754]}, u'edge': {u'target': [], u'time': []}}, u'mouseout': {u'state': {u'target': [], u'time': []}, u'edge': {u'target': [], u'time': []}}}",,,"[-10, 5, 5]","[4929, 141, 123]",-3.0,"[None, None, None]",,541304,35.0,-8.661724116053019e+18,mouselab-mdp,2
"[11794, 12337, 13131]","[u'left', u'left', u'down']",test,,,,"[u'0', u'9', u'10', u'12']","{u'mouseover': {u'state': {u'target': [], u'time': []}, u'edge': {u'target': [], u'time': []}}, u'click': {u'state': {u'target': [u'2', u'4', u'3', u'8', u'7', u'6', u'5', u'12'], u'time': [927, 1443, 2122, 3722, 4405, 5598, 6150, 10736]}, u'edge': {u'target': [], u'time': []}}, u'mouseout': {u'state': {u'target': [], u'time': []}, u'edge': {u'target': [], u'time': []}}}",,,"[10, -5, 10]","[11792, 41, 293]",7.0,"[None, None, None]",,556431,36.0,5.309248044539889e+18,mouselab-mdp,2
"[18497, 19030, 19760]","[u'right', u'right', u'down']",test,,,,"[u'0', u'5', u'6', u'8']","{u'mouseover': {u'state': {u'target': [], u'time': []}, u'edge': {u'target': [], u'time': []}}, u'click': {u'state': {u'target': [u'12', u'11', u'4', u'3', u'7', u'8', u'10', u'9', u'5', u'6', u'1', u'2'], u'time': [632, 1289, 2332, 2948, 3557, 4172, 6515, 7018, 7623, 8186, 8884, 9547]}, u'edge': {u'target': [], u'time': []}}, u'mouseout': {u'state': {u'target': [], u'time': []}, u'edge': {u'target': [], u'time': []}}}",,,"[10, -10, -5]","[18494, 23, 223]",-17.0,"[None, None, None]",,578527,37.0,-8.604426228927178e+18,mouselab-mdp,2
"[13145, 13704, 14521]","[u'up', u'up', u'left']",test,,,,"[u'0', u'1', u'2', u'4']","{u'mouseover': {u'state': {u'target': [], u'time': []}, u'edge': {u'target': [], u'time': []}}, u'click': {u'state': {u'target': [u'7', u'8', u'11', u'10', u'4', u'3', u'6', u'5', u'2', u'1'], u'time': [1058, 3100, 4225, 4717, 5727, 6190, 7099, 8108, 10306, 10851]}, u'edge': {u'target': [], u'time': []}}, u'mouseout': {u'state': {u'target': [], u'time': []}, u'edge': {u'target': [], u'time': []}}}",,,"[-5, 10, -5]","[13143, 53, 314]",-10.0,"[None, None, None]",,595222,38.0,2.9612134047696353e+18,mouselab-mdp,2
"[10180, 10738, 11381]","[u'right', u'right', u'up']",test,,,,"[u'0', u'5', u'6', u'7']","{u'mouseover': {u'state': {u'target': [], u'time': []}, u'edge': {u'target': [], u'time': []}}, u'click': {u'state': {u'target': [u'12', u'11', u'10', u'9', u'5', u'6', u'8', u'4', u'2', u'3', u'1', u'7'], u'time': [1261, 1901, 2411, 2806, 3669, 4034, 5873, 7025, 7497, 7887, 8490, 8995]}, u'edge': {u'target': [], u'time': []}}, u'mouseout': {u'state': {u'target': [], u'time': []}, u'edge': {u'target': [], u'time': []}}}",,,"[-5, 10, 10]","[10175, 54, 138]",3.0,"[None, None, None]",,608557,39.0,-2.113118043168124e+18,mouselab-mdp,2
"[5115, 5739, 6603]","[u'right', u'right', u'up']",test,,,,"[u'0', u'5', u'6', u'7']","{u'mouseover': {u'state': {u'target': [], u'time': []}, u'edge': {u'target': [], u'time': []}}, u'click': {u'state': {u'target': [u'12', u'11', u'4', u'3', u'7', u'8'], u'time': [1208, 1849, 2488, 2993, 3543, 4174]}, u'edge': {u'target': [], u'time': []}}, u'mouseout': {u'state': {u'target': [], u'time': []}, u'edge': {u'target': [], u'time': []}}}",,,"[5, 5, 5]","[5114, 121, 359]",9.0,"[None, None, None]",,616997,40.0,1.3765381945531668e+18,mouselab-mdp,2
"[4063, 7631, 8822]","[u'right', u'right', u'up']",test,,,,"[u'0', u'5', u'6', u'7']","{u'mouseover': {u'state': {u'target': [], u'time': []}, u'edge': {u'target': [], u'time': []}}, u'click': {u'state': {u'target': [u'5', u'6', u'7'], u'time': [1377, 2463, 3084]}, u'edge': {u'target': [], u'time': []}}, u'mouseout': {u'state': {u'target': [], u'time': []}, u'edge': {u'target': [], u'time': []}}}",,,"[10, 10, 5]","[4062, 3066, 684]",22.0,"[None, None, None]",,628151,41.0,-3.081449241277774e+18,mouselab-mdp,2
"[7100, 7779, 8644]","[u'up', u'up', u'right']",test,,,,"[u'0', u'1', u'2', u'3']","{u'mouseover': {u'state': {u'target': [], u'time': []}, u'edge': {u'target': [], u'time': []}}, u'click': {u'state': {u'target': [u'11', u'12', u'8', u'7', u'3', u'4', u'2'], u'time': [775, 1776, 3126, 4144, 4800, 5409, 6198]}, u'edge': {u'target': [], u'time': []}}, u'mouseout': {u'state': {u'target': [], u'time': []}, u'edge': {u'target': [], u'time': []}}}",,,"[10, 10, 10]","[7099, 167, 365]",23.0,"[None, None, None]",,638759,42.0,6.300325444535346e+18,mouselab-mdp,2
"[8966, 9598, 10286]","[u'left', u'left', u'up']",test,,,,"[u'0', u'9', u'10', u'11']","{u'mouseover': {u'state': {u'target': [], u'time': []}, u'edge': {u'target': [], u'time': []}}, u'click': {u'state': {u'target': [u'4', u'3', u'2', u'1', u'7', u'11', u'12', u'9', u'10'], u'time': [829, 1343, 1836, 2493, 3053, 3970, 4611, 5663, 6171]}, u'edge': {u'target': [], u'time': []}}, u'mouseout': {u'state': {u'target': [], u'time': []}, u'edge': {u'target': [], u'time': []}}}",,,"[5, 5, 10]","[8965, 125, 187]",11.0,"[None, None, None]",,651048,43.0,-2.7782514449718523e+18,mouselab-mdp,2
"[20812, 21337, 21873]","[u'up', u'up', u'right']",test,,,,"[u'0', u'1', u'2', u'3']","{u'mouseover': {u'state': {u'target': [], u'time': []}, u'edge': {u'target': [], u'time': []}}, u'click': {u'state': {u'target': [u'11', u'12', u'10', u'9', u'4', u'3', u'7', u'6', u'8', u'2', u'1', u'5'], u'time': [1173, 1805, 2286, 2682, 5408, 6532, 7178, 7792, 8232, 12694, 13551, 16575]}, u'edge': {u'target': [], u'time': []}}, u'mouseout': {u'state': {u'target': [], u'time': []}, u'edge': {u'target': [], u'time': []}}}",,,"[5, -10, 10]","[20810, 19, 34]",-7.0,"[None, None, None]",,674807,44.0,-8.965170723769651e+18,mouselab-mdp,2
"[10566, 11116, 11813]","[u'left', u'left', u'up']",test,,,,"[u'0', u'9', u'10', u'11']","{u'mouseover': {u'state': {u'target': [], u'time': []}, u'edge': {u'target': [], u'time': []}}, u'click': {u'state': {u'target': [u'4', u'11', u'10', u'9', u'5', u'6', u'7'], u'time': [4469, 5210, 6053, 7223, 8303, 8795, 9325]}, u'edge': {u'target': [], u'time': []}}, u'mouseout': {u'state': {u'target': [], u'time': []}, u'edge': {u'target': [], u'time': []}}}",,,"[-10, 10, 10]","[10564, 49, 190]",3.0,"[None, None, None]",,688589,45.0,-6.72824086845133e+18,mouselab-mdp,2
"[10833, 11481, 12216]","[u'up', u'up', u'right']",test,,,,"[u'0', u'1', u'2', u'3']","{u'mouseover': {u'state': {u'target': [], u'time': []}, u'edge': {u'target': [], u'time': []}}, u'click': {u'state': {u'target': [u'4', u'3', u'2', u'1', u'7', u'6', u'5'], u'time': [4119, 4761, 5698, 6260, 7090, 7579, 8132]}, u'edge': {u'target': [], u'time': []}}, u'mouseout': {u'state': {u'target': [], u'time': []}, u'edge': {u'target': [], u'time': []}}}",,,"[-5, 5, 10]","[10832, 139, 230]",3.0,"[None, None, None]",,702663,46.0,9.182422570892963e+18,mouselab-mdp,2
"[7411, 8108, 8739]","[u'left', u'left', u'up']",test,,,,"[u'0', u'9', u'10', u'11']","{u'mouseover': {u'state': {u'target': [], u'time': []}, u'edge': {u'target': [], u'time': []}}, u'click': {u'state': {u'target': [u'9', u'1', u'5', u'10', u'11'], u'time': [1506, 2225, 2815, 4086, 4646]}, u'edge': {u'target': [], u'time': []}}, u'mouseout': {u'state': {u'target': [], u'time': []}, u'edge': {u'target': [], u'time': []}}}",,,"[5, -10, 10]","[7409, 191, 128]",0.0,"[None, None, None]",,713247,47.0,-3.334411552997521e+18,mouselab-mdp,2
"[50896, 51903, 52480]","[u'left', u'left', u'down']",test,,,,"[u'0', u'9', u'10', u'12']","{u'mouseover': {u'state': {u'target': [], u'time': []}, u'edge': {u'target': [], u'time': []}}, u'click': {u'state': {u'target': [u'9', u'11', u'1', u'5', u'12', u'10'], u'time': [45312, 46141, 46758, 47372, 49463, 49944]}, u'edge': {u'target': [], u'time': []}}, u'mouseout': {u'state': {u'target': [], u'time': []}, u'edge': {u'target': [], u'time': []}}}",,,"[-5, -5, 5]","[50894, 506, 72]",-11.0,"[None, None, None]",,767671,48.0,7.839838664789078e+18,mouselab-mdp,2
"[11685, 12380, 12996]","[u'up', u'up', u'right']",test,,,,"[u'0', u'1', u'2', u'3']","{u'mouseover': {u'state': {u'target': [], u'time': []}, u'edge': {u'target': [], u'time': []}}, u'click': {u'state': {u'target': [u'4', u'3', u'2', u'7', u'6', u'8', u'10'], u'time': [730, 1196, 5555, 6575, 7151, 7610, 8482]}, u'edge': {u'target': [], u'time': []}}, u'mouseout': {u'state': {u'target': [], u'time': []}, u'edge': {u'target': [], u'time': []}}}",,,"[-10, -5, 10]","[11683, 195, 117]",-12.0,"[None, None, None]",,782511,49.0,-7.325569627557755e+18,mouselab-mdp,2
"[22916, 23973, 24844]","[u'left', u'left', u'up']",train_basic,,,,"[u'0', u'9', u'10', u'11']","{u'mouseover': {u'state': {u'target': [], u'time': []}, u'edge': {u'target': [], u'time': []}}, u'click': {u'state': {u'target': [], u'time': []}, u'edge': {u'target': [], u'time': []}}, u'mouseout': {u'state': {u'target': [], u'time': []}, u'edge': {u'target': [], u'time': []}}}",,,"[10, 10, 5]","[22912, 546, 368]",25.0,"[None, None, None]",,28870,0.0,8.829151516447664e+18,mouselab-mdp,3
"[14399, 15302, 16478]","[u'left', u'left', u'up']",train_basic,,,,"[u'0', u'9', u'10', u'11']","{u'mouseover': {u'state': {u'target': [], u'time': []}, u'edge': {u'target': [], u'time': []}}, u'click': {u'state': {u'target': [], u'time': []}, u'edge': {u'target': [], u'time': []}}, u'mouseout': {u'state': {u'target': [], u'time': []}, u'edge': {u'target': [], u'time': []}}}",,,"[5, -5, 10]","[14397, 397, 675]",10.0,"[None, None, None]",,48285,1.0,-6.467484867280245e+18,mouselab-mdp,3
"[3895, 4736, 5592]","[u'right', u'right', u'down']",train_basic,,,,"[u'0', u'5', u'6', u'8']","{u'mouseover': {u'state': {u'target': [], u'time': []}, u'edge': {u'target': [], u'time': []}}, u'click': {u'state': {u'target': [], u'time': []}, u'edge': {u'target': [], u'time': []}}, u'mouseout': {u'state': {u'target': [], u'time': []}, u'edge': {u'target': [], u'time': []}}}",,,"[5, 5, 10]","[3893, 338, 361]",20.0,"[None, None, None]",,56685,2.0,2.102736855806764e+18,mouselab-mdp,3
"[4805, 5526, 6549]","[u'up', u'up', u'right']",train_basic,,,,"[u'0', u'1', u'2', u'3']","{u'mouseover': {u'state': {u'target': [], u'time': []}, u'edge': {u'target': [], u'time': []}}, u'click': {u'state': {u'target': [], u'time': []}, u'edge': {u'target': [], u'time': []}}, u'mouseout': {u'state': {u'target': [], u'time': []}, u'edge': {u'target': [], u'time': []}}}",,,"[-10, 10, 10]","[4803, 216, 519]",10.0,"[None, None, None]",,66590,3.0,1.159689721296071e+18,mouselab-mdp,3
"[14400, 15295, 16071]","[u'left', u'left', u'up']",train_basic,,,,"[u'0', u'9', u'10', u'11']","{u'mouseover': {u'state': {u'target': [], u'time': []}, u'edge': {u'target': [], u'time': []}}, u'click': {u'state': {u'target': [], u'time': []}, u'edge': {u'target': [], u'time': []}}, u'mouseout': {u'state': {u'target': [], u'time': []}, u'edge': {u'target': [], u'time': []}}}",,,"[-10, 5, 10]","[14395, 394, 269]",5.0,"[None, None, None]",,84949,4.0,-5.833452680797874e+18,mouselab-mdp,3
"[2987, 3691, 4460]","[u'right', u'right', u'up']",train_basic,,,,"[u'0', u'5', u'6', u'7']","{u'mouseover': {u'state': {u'target': [], u'time': []}, u'edge': {u'target': [], u'time': []}}, u'click': {u'state': {u'target': [], u'time': []}, u'edge': {u'target': [], u'time': []}}, u'mouseout': {u'state': {u'target': [], u'time': []}, u'edge': {u'target': [], u'time': []}}}",,,"[-5, 10, 10]","[2985, 196, 267]",15.0,"[None, None, None]",,91357,5.0,-2.113118043168124e+18,mouselab-mdp,3
"[4595, 5322, 5962]","[u'left', u'left', u'down']",train_basic,,,,"[u'0', u'9', u'10', u'12']","{u'mouseover': {u'state': {u'target': [], u'time': []}, u'edge': {u'target': [], u'time': []}}, u'click': {u'state': {u'target': [], u'time': []}, u'edge': {u'target': [], u'time': []}}, u'mouseout': {u'state': {u'target': [], u'time': []}, u'edge': {u'target': [], u'time': []}}}",,,"[10, -5, 10]","[4591, 231, 122]",15.0,"[None, None, None]",,99573,6.0,5.309248044539889e+18,mouselab-mdp,3
"[3145, 4233, 5121]","[u'left', u'left', u'down']",train_basic,,,,"[u'0', u'9', u'10', u'12']","{u'mouseover': {u'state': {u'target': [], u'time': []}, u'edge': {u'target': [], u'time': []}}, u'click': {u'state': {u'target': [], u'time': []}, u'edge': {u'target': [], u'time': []}}, u'mouseout': {u'state': {u'target': [], u'time': []}, u'edge': {u'target': [], u'time': []}}}",,,"[-10, 10, 10]","[3143, 582, 386]",10.0,"[None, None, None]",,106533,7.0,-5.559450979544907e+18,mouselab-mdp,3
"[7881, 8424, 8976]","[u'up', u'up', u'left']",train_basic,,,,"[u'0', u'1', u'2', u'4']","{u'mouseover': {u'state': {u'target': [], u'time': []}, u'edge': {u'target': [], u'time': []}}, u'click': {u'state': {u'target': [], u'time': []}, u'edge': {u'target': [], u'time': []}}, u'mouseout': {u'state': {u'target': [], u'time': []}, u'edge': {u'target': [], u'time': []}}}",,,"[5, -10, 5]","[7878, 40, 28]",0.0,"[None, None, None]",,117717,8.0,-3.3393520083480607e+18,mouselab-mdp,3
"[10696, 11735, 12319]","[u'up', u'up', u'left']",train_basic,,,,"[u'0', u'1', u'2', u'4']","{u'mouseover': {u'state': {u'target': [], u'time': []}, u'edge': {u'target': [], u'time': []}}, u'click': {u'state': {u'target': [], u'time': []}, u'edge': {u'target': [], u'time': []}}, u'mouseout': {u'state': {u'target': [], u'time': []}, u'edge': {u'target': [], u'time': []}}}",,,"[5, 5, -10]","[10693, 537, 89]",0.0,"[None, None, None]",,132501,9.0,-4.854145221764645e+18,mouselab-mdp,3
"[5776, 7295, 8528]","[u'left', u'left', u'up']",train_hidden,,,,"[u'0', u'9', u'10', u'11']","{u'mouseover': {u'state': {u'target': [], u'time': []}, u'edge': {u'target': [], u'time': []}}, u'click': {u'state': {u'target': [], u'time': []}, u'edge': {u'target': [], u'time': []}}, u'mouseout': {u'state': {u'target': [], u'time': []}, u'edge': {u'target': [], u'time': []}}}",,,"[-10, -10, -5]","[5773, 1006, 727]",-25.0,"[None, None, None]",,147477,10.0,-5.799413076952947e+18,mouselab-mdp,3
"[1306, 2234, 3321]","[u'up', u'up', u'left']",train_hidden,,,,"[u'0', u'1', u'2', u'4']","{u'mouseover': {u'state': {u'target': [], u'time': []}, u'edge': {u'target': [], u'time': []}}, u'click': {u'state': {u'target': [], u'time': []}, u'edge': {u'target': [], u'time': []}}, u'mouseout': {u'state': {u'target': [], u'time': []}, u'edge': {u'target': [], u'time': []}}}",,,"[-10, -5, -10]","[1303, 428, 581]",-25.0,"[None, None, None]",,153374,11.0,-8.430627562648791e+18,mouselab-mdp,3
"[617, 1577, 3016]","[u'up', u'up', u'right']",train_hidden,,,,"[u'0', u'1', u'2', u'3']","{u'mouseover': {u'state': {u'target': [], u'time': []}, u'edge': {u'target': [], u'time': []}}, u'click': {u'state': {u'target': [], u'time': []}, u'edge': {u'target': [], u'time': []}}, u'mouseout': {u'state': {u'target': [], u'time': []}, u'edge': {u'target': [], u'time': []}}}",,,"[10, 10, -5]","[614, 460, 936]",15.0,"[None, None, None]",,160293,12.0,4.621247487711653e+18,mouselab-mdp,3
"[4346, 6154, 7665]","[u'up', u'up', u'left']",train_hidden,,,,"[u'0', u'1', u'2', u'4']","{u'mouseover': {u'state': {u'target': [], u'time': []}, u'edge': {u'target': [], u'time': []}}, u'click': {u'state': {u'target': [], u'time': []}, u'edge': {u'target': [], u'time': []}}, u'mouseout': {u'state': {u'target': [], u'time': []}, u'edge': {u'target': [], u'time': []}}}",,,"[-10, 10, -5]","[4343, 1309, 1008]",-5.0,"[None, None, None]",,181790,13.0,-2.406626739250812e+18,mouselab-mdp,3
"[4732, 5771, 7347]","[u'right', u'right', u'down']",train_hidden,,,,"[u'0', u'5', u'6', u'8']","{u'mouseover': {u'state': {u'target': [], u'time': []}, u'edge': {u'target': [], u'time': []}}, u'click': {u'state': {u'target': [], u'time': []}, u'edge': {u'target': [], u'time': []}}, u'mouseout': {u'state': {u'target': [], u'time': []}, u'edge': {u'target': [], u'time': []}}}",,,"[10, 10, 5]","[4729, 533, 1071]",25.0,"[None, None, None]",,192166,14.0,-3.081449241277774e+18,mouselab-mdp,3
"[10368, 15985, 17689]","[u'left', u'left', u'up']",train_inspector,,,,"[u'0', u'9', u'10', u'11']","{u'mouseover': {u'state': {u'target': [], u'time': []}, u'edge': {u'target': [], u'time': []}}, u'click': {u'state': {u'target': [u'5', u'9', u'1'], u'time': [4892, 7324, 8546]}, u'edge': {u'target': [], u'time': []}}, u'mouseout': {u'state': {u'target': [], u'time': []}, u'edge': {u'target': [], u'time': []}}}",,,"[-5, 5, -10]","[10366, 5114, 1199]",-10.0,"[None, None, None]",,215485,15.0,4.339880646647608e+18,mouselab-mdp,3
"[11844, 12404, 13003]","[u'left', u'left', u'up']",train_inspector,,,,"[u'0', u'9', u'10', u'11']","{u'mouseover': {u'state': {u'target': [], u'time': []}, u'edge': {u'target': [], u'time': []}}, u'click': {u'state': {u'target': [u'9', u'1', u'5', u'10', u'12', u'6', u'7', u'8', u'2', u'3', u'4', u'11'], u'time': [1095, 1862, 2477, 3277, 4486, 5206, 5910, 6576, 7414, 7814, 8325, 10318]}, u'edge': {u'target': [], u'time': []}}, u'mouseout': {u'state': {u'target': [], u'time': []}, u'edge': {u'target': [], u'time': []}}}",,,"[5, 10, 10]","[11839, 60, 93]",25.0,"[None, None, None]",,232261,16.0,4.842692465290208e+18,mouselab-mdp,3
"[14118, 14701, 15765]","[u'up', u'up', u'left']",train_inspector,,,,"[u'0', u'1', u'2', u'4']","{u'mouseover': {u'state': {u'target': [], u'time': []}, u'edge': {u'target': [], u'time': []}}, u'click': {u'state': {u'target': [u'9', u'2', u'3', u'1', u'5', u'6', u'7', u'8', u'10', u'11', u'4', u'12'], u'time': [1857, 2855, 3254, 3800, 4415, 4758, 5151, 5743, 6783, 7142, 8527, 9382]}, u'edge': {u'target': [], u'time': []}}, u'mouseout': {u'state': {u'target': [], u'time': []}, u'edge': {u'target': [], u'time': []}}}",,,"[5, 5, 5]","[14115, 81, 565]",15.0,"[None, None, None]",,250237,17.0,-7.701717791270176e+18,mouselab-mdp,3
"[9546, 10154, 10689]","[u'left', u'left', u'up']",train_inspector,,,,"[u'0', u'9', u'10', u'11']","{u'mouseover': {u'state': {u'target': [], u'time': []}, u'edge': {u'target': [], u'time': []}}, u'click': {u'state': {u'target': [u'1', u'2', u'3', u'4', u'11', u'10', u'12', u'9', u'5', u'6', u'7', u'8'], u'time': [1125, 1700, 2123, 3715, 4364, 4787, 5228, 5644, 6227, 6908, 7211, 7823]}, u'edge': {u'target': [], u'time': []}}, u'mouseout': {u'state': {u'target': [], u'time': []}, u'edge': {u'target': [], u'time': []}}}",,,"[-5, 5, 10]","[9542, 95, 34]",10.0,"[None, None, None]",,263205,18.0,-5.149457503050632e+18,mouselab-mdp,3
"[15912, 18360, 19584]","[u'up', u'up', u'right']",train_inspector,,,,"[u'0', u'1', u'2', u'3']","{u'mouseover': {u'state': {u'target': [], u'time': []}, u'edge': {u'target': [], u'time': []}}, u'click': {u'state': {u'target': [u'1', u'5', u'6', u'7', u'8', u'9', u'10', u'11', u'12', u'2', u'3', u'4'], u'time': [1449, 2328, 2763, 3090, 3643, 4250, 4642, 5092, 5618, 6187, 6626, 7146]}, u'edge': {u'target': [], u'time': []}}, u'mouseout': {u'state': {u'target': [], u'time': []}, u'edge': {u'target': [], u'time': []}}}",,,"[5, -10, 10]","[15910, 1939, 717]",5.0,"[None, None, None]",,284941,19.0,-8.965170723769651e+18,mouselab-mdp,3
"[23992, 24655, 25351]","[u'up', u'up', u'right']",train_inspect_cost,,,,"[u'0', u'1', u'2', u'3']","{u'mouseover': {u'state': {u'target': [], u'time': []}, u'edge': {u'target': [], u'time': []}}, u'click': {u'state': {u'target': [u'1', u'5', u'9', u'2', u'3', u'4'], u'time': [10244, 11498, 13306, 16666, 17401, 22338]}, u'edge': {u'target': [], u'time': []}}, u'mouseout': {u'state': {u'target': [], u'time': []}, u'edge': {u'target': [], u'time': []}}}",,,"[5, -10, 10]","[23989, 168, 195]",-1.0,"[None, None, None]",,315805,20.0,8.892810546696874e+17,mouselab-mdp,3
"[6904, 7528, 8184]","[u'right', u'right', u'up']",train_inspect_cost,,,,"[u'0', u'5', u'6', u'7']","{u'mouseover': {u'state': {u'target': [], u'time': []}, u'edge': {u'target': [], u'time': []}}, u'click': {u'state': {u'target': [u'9', u'5', u'6', u'7'], u'time': [1322, 2185, 4090, 5553]}, u'edge': {u'target': [], u'time': []}}, u'mouseout': {u'state': {u'target': [], u'time': []}, u'edge': {u'target': [], u'time': []}}}",,,"[10, -5, 5]","[6900, 115, 155]",6.0,"[None, None, None]",,326597,21.0,3.6695183518116547e+18,mouselab-mdp,3
"[12040, 13128, 14680]","[u'up', u'up', u'right']",train_inspect_cost,,,,"[u'0', u'1', u'2', u'3']","{u'mouseover': {u'state': {u'target': [], u'time': []}, u'edge': {u'target': [], u'time': []}}, u'click': {u'state': {u'target': [u'5', u'9', u'7', u'8', u'2', u'3'], u'time': [874, 1642, 5267, 6073, 9530, 10913]}, u'edge': {u'target': [], u'time': []}}, u'mouseout': {u'state': {u'target': [], u'time': []}, u'edge': {u'target': [], u'time': []}}}",,,"[10, 10, 5]","[12036, 582, 1054]",19.0,"[None, None, None]",,343886,22.0,2.0031782822548767e+18,mouselab-mdp,3
"[9816, 11456, 12288]","[u'up', u'up', u'right']",train_inspect_cost,,,,"[u'0', u'1', u'2', u'3']","{u'mouseover': {u'state': {u'target': [], u'time': []}, u'edge': {u'target': [], u'time': []}}, u'click': {u'state': {u'target': [u'2', u'10', u'6', u'7', u'3'], u'time': [1508, 2850, 5245, 5954, 7844]}, u'edge': {u'target': [], u'time': []}}, u'mouseout': {u'state': {u'target': [], u'time': []}, u'edge': {u'target': [], u'time': []}}}",,,"[10, -10, 10]","[9814, 1139, 324]",5.0,"[None, None, None]",,358341,23.0,3.812331254939213e+18,mouselab-mdp,3
"[4693, 5756, 7228]","[u'up', u'up', u'left']",train_inspect_cost,,,,"[u'0', u'1', u'2', u'4']","{u'mouseover': {u'state': {u'target': [], u'time': []}, u'edge': {u'target': [], u'time': []}}, u'click': {u'state': {u'target': [u'3', u'4'], u'time': [1128, 2597]}, u'edge': {u'target': [], u'time': []}}, u'mouseout': {u'state': {u'target': [], u'time': []}, u'edge': {u'target': [], u'time': []}}}",,,"[5, -10, 10]","[4691, 560, 965]",3.0,"[None, None, None]",,367677,24.0,-8.485306912601427e+16,mouselab-mdp,3
"[25980, 27164, 29387]","[u'right', u'right', u'down']",train_final,,,,"[u'0', u'5', u'6', u'8']","{u'mouseover': {u'state': {u'target': [], u'time': []}, u'edge': {u'target': [], u'time': []}}, u'click': {u'state': {u'target': [u'5', u'9', u'2', u'11', u'12', u'7'], u'time': [17160, 18318, 19592, 21854, 22653, 24478]}, u'edge': {u'target': [], u'time': []}}, u'mouseout': {u'state': {u'target': [], u'time': []}, u'edge': {u'target': [], u'time': []}}}",,,"[-5, -10, 10]","[25978, 674, 1715]",-11.0,"[None, None, None]",,402430,25.0,-7.125102216625555e+18,mouselab-mdp,3
"[7501, 8805, 12974]","[u'right', u'right', u'up']",train_final,,,,"[u'0', u'5', u'6', u'7']","{u'mouseover': {u'state': {u'target': [], u'time': []}, u'edge': {u'target': [], u'time': []}}, u'click': {u'state': {u'target': [u'5'], u'time': [5882]}, u'edge': {u'target': [], u'time': []}}, u'mouseout': {u'state': {u'target': [], u'time': []}, u'edge': {u'target': [], u'time': []}}}",,,"[10, -10, -10]","[7499, 795, 3665]",-11.0,"[None, None, None]",,418557,26.0,-6.909700207174625e+18,mouselab-mdp,3
"[3492, 4372, 5564]","[u'right', u'right', u'up']",train_final,,,,"[u'0', u'5', u'6', u'7']","{u'mouseover': {u'state': {u'target': [], u'time': []}, u'edge': {u'target': [], u'time': []}}, u'click': {u'state': {u'target': [u'7', u'5'], u'time': [921, 2448]}, u'edge': {u'target': [], u'time': []}}, u'mouseout': {u'state': {u'target': [], u'time': []}, u'edge': {u'target': [], u'time': []}}}",,,"[10, -10, 5]","[3490, 383, 691]",3.0,"[None, None, None]",,426557,27.0,-7.477953334368281e+18,mouselab-mdp,3
"[4194, 5273, 6842]","[u'left', u'left', u'up']",train_final,,,,"[u'0', u'9', u'10', u'11']","{u'mouseover': {u'state': {u'target': [], u'time': []}, u'edge': {u'target': [], u'time': []}}, u'click': {u'state': {u'target': [u'2', u'10', u'6'], u'time': [917, 1949, 2700]}, u'edge': {u'target': [], u'time': []}}, u'mouseout': {u'state': {u'target': [], u'time': []}, u'edge': {u'target': [], u'time': []}}}",,,"[-10, 10, 5]","[4192, 573, 1072]",2.0,"[None, None, None]",,436446,28.0,5.724401768725425e+18,mouselab-mdp,3
"[2959, 3942, 4911]","[u'left', u'left', u'up']",train_final,,,,"[u'0', u'9', u'10', u'11']","{u'mouseover': {u'state': {u'target': [], u'time': []}, u'edge': {u'target': [], u'time': []}}, u'click': {u'state': {u'target': [u'10', u'11'], u'time': [1106, 1664]}, u'edge': {u'target': [], u'time': []}}, u'mouseout': {u'state': {u'target': [], u'time': []}, u'edge': {u'target': [], u'time': []}}}",,,"[-5, 10, 10]","[2956, 478, 467]",13.0,"[None, None, None]",,443974,29.0,7.553211965372142e+18,mouselab-mdp,3
"[14925, 16700, 18140]","[u'left', u'left', u'up']",test,,,,"[u'0', u'9', u'10', u'11']","{u'mouseover': {u'state': {u'target': [], u'time': []}, u'edge': {u'target': [], u'time': []}}, u'click': {u'state': {u'target': [u'2', u'6', u'11', u'12'], u'time': [7623, 8782, 10334, 11398]}, u'edge': {u'target': [], u'time': []}}, u'mouseout': {u'state': {u'target': [], u'time': []}, u'edge': {u'target': [], u'time': []}}}",,,"[10, -5, 5]","[14921, 1269, 942]",6.0,"[None, None, None]",,518086,30.0,-8.685761292807083e+18,mouselab-mdp,3
"[17586, 18690, 19730]","[u'left', u'left', u'down']",test,,,,"[u'0', u'9', u'10', u'12']","{u'mouseover': {u'state': {u'target': [], u'time': []}, u'edge': {u'target': [], u'time': []}}, u'click': {u'state': {u'target': [u'6', u'10', u'11', u'12'], u'time': [11902, 12876, 14340, 16476]}, u'edge': {u'target': [], u'time': []}}, u'mouseout': {u'state': {u'target': [], u'time': []}, u'edge': {u'target': [], u'time': []}}}",,,"[-10, 10, 5]","[17581, 595, 535]",1.0,"[None, None, None]",,540166,31.0,1.660935089319862e+18,mouselab-mdp,3
"[14468, 15852, 18004]","[u'right', u'right', u'up']",test,,,,"[u'0', u'5', u'6', u'7']","{u'mouseover': {u'state': {u'target': [], u'time': []}, u'edge': {u'target': [], u'time': []}}, u'click': {u'state': {u'target': [u'10', u'12', u'9', u'5', u'8'], u'time': [1520, 4911, 6606, 8422, 12254]}, u'edge': {u'target': [], u'time': []}}, u'mouseout': {u'state': {u'target': [], u'time': []}, u'edge': {u'target': [], u'time': []}}}",,,"[10, 10, 5]","[14465, 886, 1658]",20.0,"[None, None, None]",,561158,32.0,-5.630369455004455e+18,mouselab-mdp,3
"[6962, 8249, 9625]","[u'right', u'right', u'up']",test,,,,"[u'0', u'5', u'6', u'7']","{u'mouseover': {u'state': {u'target': [], u'time': []}, u'edge': {u'target': [], u'time': []}}, u'click': {u'state': {u'target': [u'7', u'5'], u'time': [1686, 4979]}, u'edge': {u'target': [], u'time': []}}, u'mouseout': {u'state': {u'target': [], u'time': []}, u'edge': {u'target': [], u'time': []}}}",,,"[10, 5, 5]","[6959, 788, 880]",18.0,"[None, None, None]",,573749,33.0,7.211868466475451e+18,mouselab-mdp,3
"[14415, 15375, 16815]","[u'right', u'right', u'down']",test,,,,"[u'0', u'5', u'6', u'8']","{u'mouseover': {u'state': {u'target': [], u'time': []}, u'edge': {u'target': [], u'time': []}}, u'click': {u'state': {u'target': [u'1', u'5', u'7', u'8'], u'time': [5130, 6883, 8833, 13267]}, u'edge': {u'target': [], u'time': []}}, u'mouseout': {u'state': {u'target': [], u'time': []}, u'edge': {u'target': [], u'time': []}}}",,,"[-5, 5, 10]","[14413, 457, 914]",6.0,"[None, None, None]",,592821,34.0,9.041022091974375e+18,mouselab-mdp,3
"[7421, 8214, 9117]","[u'right', u'right', u'up']",test,,,,"[u'0', u'5', u'6', u'7']","{u'mouseover': {u'state': {u'target': [], u'time': []}, u'edge': {u'target': [], u'time': []}}, u'click': {u'state': {u'target': [u'8', u'7', u'5', u'6'], u'time': [2216, 3138, 4175, 5240]}, u'edge': {u'target': [], u'time': []}}, u'mouseout': {u'state': {u'target': [], u'time': []}, u'edge': {u'target': [], u'time': []}}}",,,"[-5, 5, 5]","[7418, 295, 401]",1.0,"[None, None, None]",,604005,35.0,1.0328961532146797e+17,mouselab-mdp,3
"[8362, 9858, 11450]","[u'up', u'up', u'right']",test,,,,"[u'0', u'1', u'2', u'3']","{u'mouseover': {u'state': {u'target': [], u'time': []}, u'edge': {u'target': [], u'time': []}}, u'click': {u'state': {u'target': [u'2', u'3'], u'time': [3205, 6348]}, u'edge': {u'target': [], u'time': []}}, u'mouseout': {u'state': {u'target': [], u'time': []}, u'edge': {u'target': [], u'time': []}}}",,,"[-5, 5, 5]","[8359, 1003, 1076]",3.0,"[None, None, None]",,617877,36.0,-1.7794280299741353e+18,mouselab-mdp,3
"[8867, 10138, 11147]","[u'up', u'up', u'right']",test,,,,"[u'0', u'1', u'2', u'3']","{u'mouseover': {u'state': {u'target': [], u'time': []}, u'edge': {u'target': [], u'time': []}}, u'click': {u'state': {u'target': [u'2', u'3'], u'time': [4364, 7709]}, u'edge': {u'target': [], u'time': []}}, u'mouseout': {u'state': {u'target': [], u'time': []}, u'edge': {u'target': [], u'time': []}}}",,,"[5, 10, 5]","[8864, 773, 512]",18.0,"[None, None, None]",,631254,37.0,6.142163930824438e+17,mouselab-mdp,3
"[7853, 8957, 9789]","[u'right', u'right', u'up']",test,,,,"[u'0', u'5', u'6', u'7']","{u'mouseover': {u'state': {u'target': [], u'time': []}, u'edge': {u'target': [], u'time': []}}, u'click': {u'state': {u'target': [u'10', u'6', u'7'], u'time': [2433, 4943, 6791]}, u'edge': {u'target': [], u'time': []}}, u'mouseout': {u'state': {u'target': [], u'time': []}, u'edge': {u'target': [], u'time': []}}}",,,"[-5, 5, 5]","[7850, 607, 337]",2.0,"[None, None, None]",,643117,38.0,5.015924348765825e+18,mouselab-mdp,3
"[11259, 12347, 13491]","[u'up', u'up', u'left']",test,,,,"[u'0', u'1', u'2', u'4']","{u'mouseover': {u'state': {u'target': [], u'time': []}, u'edge': {u'target': [], u'time': []}}, u'click': {u'state': {u'target': [u'5', u'8', u'7', u'2', u'4'], u'time': [2871, 4908, 5678, 8748, 10142]}, u'edge': {u'target': [], u'time': []}}, u'mouseout': {u'state': {u'target': [], u'time': []}, u'edge': {u'target': [], u'time': []}}}",,,"[5, 5, 5]","[11256, 593, 637]",10.0,"[None, None, None]",,658917,39.0,2.64561491402998e+18,mouselab-mdp,3
"[7302, 8222, 9206]","[u'right', u'right', u'down']",test,,,,"[u'0', u'5', u'6', u'8']","{u'mouseover': {u'state': {u'target': [], u'time': []}, u'edge': {u'target': [], u'time': []}}, u'click': {u'state': {u'target': [u'10', u'6', u'8'], u'time': [1650, 2968, 6312]}, u'edge': {u'target': [], u'time': []}}, u'mouseout': {u'state': {u'target': [], u'time': []}, u'edge': {u'target': [], u'time': []}}}",,,"[5, 5, 10]","[7299, 414, 483]",17.0,"[None, None, None]",,670565,40.0,9.10621497278211e+18,mouselab-mdp,3
"[12485, 13770, 16002]","[u'right', u'right', u'down']",test,,,,"[u'0', u'5', u'6', u'8']","{u'mouseover': {u'state': {u'target': [], u'time': []}, u'edge': {u'target': [], u'time': []}}, u'click': {u'state': {u'target': [u'2', u'3', u'4', u'6', u'7', u'8'], u'time': [3309, 4740, 6284, 8004, 9267, 10900]}, u'edge': {u'target': [], u'time': []}}, u'mouseout': {u'state': {u'target': [], u'time': []}, u'edge': {u'target': [], u'time': []}}}",,,"[5, 10, -5]","[12480, 782, 1730]",4.0,"[None, None, None]",,688829,41.0,4.709696185255814e+18,mouselab-mdp,3
"[3654, 5678, 6414]","[u'right', u'right', u'down']",test,,,,"[u'0', u'5', u'6', u'8']","{u'mouseover': {u'state': {u'target': [], u'time': []}, u'edge': {u'target': [], u'time': []}}, u'click': {u'state': {u'target': [u'6', u'8'], u'time': [1314, 2469]}, u'edge': {u'target': [], u'time': []}}, u'mouseout': {u'state': {u'target': [], u'time': []}, u'edge': {u'target': [], u'time': []}}}",,,"[-10, 5, 10]","[3651, 1519, 240]",3.0,"[None, None, None]",,697797,42.0,7.434111409514572e+18,mouselab-mdp,3
"[9781, 11005, 11909]","[u'up', u'up', u'right']",test,,,,"[u'0', u'1', u'2', u'3']","{u'mouseover': {u'state': {u'target': [], u'time': []}, u'edge': {u'target': [], u'time': []}}, u'click': {u'state': {u'target': [u'6', u'10', u'9', u'2', u'1'], u'time': [2532, 4897, 5638, 6799, 7391]}, u'edge': {u'target': [], u'time': []}}, u'mouseout': {u'state': {u'target': [], u'time': []}, u'edge': {u'target': [], u'time': []}}}",,,"[10, -5, -5]","[9778, 728, 402]",-5.0,"[None, None, None]",,712485,43.0,-4.4291516051404616e+18,mouselab-mdp,3
