action_times,actions,block,path,queries,rewards,rt,score,simulation_mode,state_rewards,time_elapsed,trial_index,trial_id,trial_type,pid
"[22443, 27441, 28782]","[u'right', u'right', u'down']",train_basic,"[u'0', u'5', u'6', u'8']","{u'mouseover': {u'state': {u'target': [], u'time': []}, u'edge': {u'target': [], u'time': []}}, u'click': {u'state': {u'target': [], u'time': []}, u'edge': {u'target': [], u'time': []}}, u'mouseout': {u'state': {u'target': [], u'time': []}, u'edge': {u'target': [], u'time': []}}}","[-10, -10, 5]","[22439, 4490, 836]",-15.0,"[None, None, None]","[u'', 10, 10, 10, 10, -10, -10, -10, 5, 10, 10, 5, 5]",31387,0.0,1.1933479039128937e+18,mouselab-mdp,0
"[3850, 5252, 6102]","[u'up', u'up', u'left']",train_basic,"[u'0', u'1', u'2', u'4']","{u'mouseover': {u'state': {u'target': [], u'time': []}, u'edge': {u'target': [], u'time': []}}, u'click': {u'state': {u'target': [], u'time': []}, u'edge': {u'target': [], u'time': []}}, u'mouseout': {u'state': {u'target': [], u'time': []}, u'edge': {u'target': [], u'time': []}}}","[5, 10, 10]","[3849, 909, 343]",25.0,"[None, None, None]","[u'', 5, 10, 10, 10, -10, -10, 5, 10, 10, 5, 10, 5]",40981,1.0,2.0301359460781466e+18,mouselab-mdp,0
"[3670, 4761, 5583]","[u'right', u'right', u'up']",train_basic,"[u'0', u'5', u'6', u'7']","{u'mouseover': {u'state': {u'target': [], u'time': []}, u'edge': {u'target': [], u'time': []}}, u'click': {u'state': {u'target': [], u'time': []}, u'edge': {u'target': [], u'time': []}}, u'mouseout': {u'state': {u'target': [], u'time': []}, u'edge': {u'target': [], u'time': []}}}","[10, 5, 10]","[3668, 601, 324]",25.0,"[None, None, None]","[u'', -5, -10, 10, 5, 10, 5, 10, 5, 5, -10, -5, -10]",49294,2.0,3.569831271632112e+18,mouselab-mdp,0
"[4232, 5240, 5867]","[u'right', u'right', u'down']",train_basic,"[u'0', u'5', u'6', u'8']","{u'mouseover': {u'state': {u'target': [], u'time': []}, u'edge': {u'target': [], u'time': []}}, u'click': {u'state': {u'target': [], u'time': []}, u'edge': {u'target': [], u'time': []}}, u'mouseout': {u'state': {u'target': [], u'time': []}, u'edge': {u'target': [], u'time': []}}}","[10, 5, 5]","[4231, 512, 122]",20.0,"[None, None, None]","[u'', 5, -10, -5, 10, 10, 5, -10, 5, 5, -5, -5, 5]",57462,3.0,8.034619116489217e+18,mouselab-mdp,0
"[3155, 4027, 4816]","[u'up', u'up', u'right']",train_basic,"[u'0', u'1', u'2', u'3']","{u'mouseover': {u'state': {u'target': [], u'time': []}, u'edge': {u'target': [], u'time': []}}, u'click': {u'state': {u'target': [], u'time': []}, u'edge': {u'target': [], u'time': []}}, u'mouseout': {u'state': {u'target': [], u'time': []}, u'edge': {u'target': [], u'time': []}}}","[5, -5, 10]","[3153, 381, 269]",10.0,"[None, None, None]","[u'', 5, -5, 10, -10, 5, -10, 5, -5, -10, -10, 5, -5]",65040,4.0,-6.260275842353281e+18,mouselab-mdp,0
"[1262, 2068, 2874]","[u'left', u'left', u'down']",train_basic,"[u'0', u'9', u'10', u'12']","{u'mouseover': {u'state': {u'target': [], u'time': []}, u'edge': {u'target': [], u'time': []}}, u'click': {u'state': {u'target': [], u'time': []}, u'edge': {u'target': [], u'time': []}}, u'mouseout': {u'state': {u'target': [], u'time': []}, u'edge': {u'target': [], u'time': []}}}","[10, 10, 10]","[1259, 291, 296]",30.0,"[None, None, None]","[u'', 5, -5, -5, -5, -10, 5, 5, -10, 10, 10, 10, 10]",70618,5.0,6.349377679140465e+18,mouselab-mdp,0
"[3864, 4549, 5459]","[u'right', u'right', u'down']",train_basic,"[u'0', u'5', u'6', u'8']","{u'mouseover': {u'state': {u'target': [], u'time': []}, u'edge': {u'target': [], u'time': []}}, u'click': {u'state': {u'target': [], u'time': []}, u'edge': {u'target': [], u'time': []}}, u'mouseout': {u'state': {u'target': [], u'time': []}, u'edge': {u'target': [], u'time': []}}}","[10, 10, 5]","[3862, 182, 390]",25.0,"[None, None, None]","[u'', -5, 5, 5, 5, 10, 10, -10, 5, -5, 10, -10, -5]",78166,6.0,9.142111453001215e+18,mouselab-mdp,0
"[2990, 3885, 4683]","[u'up', u'up', u'right']",train_basic,"[u'0', u'1', u'2', u'3']","{u'mouseover': {u'state': {u'target': [], u'time': []}, u'edge': {u'target': [], u'time': []}}, u'click': {u'state': {u'target': [], u'time': []}, u'edge': {u'target': [], u'time': []}}, u'mouseout': {u'state': {u'target': [], u'time': []}, u'edge': {u'target': [], u'time': []}}}","[-5, 10, 10]","[2987, 396, 294]",15.0,"[None, None, None]","[u'', -5, 10, 10, 5, -5, 5, -10, 10, 10, -10, -10, -10]",85494,7.0,7.801448459840969e+18,mouselab-mdp,0
"[1564, 2458, 4615]","[u'right', u'right', u'up']",train_basic,"[u'0', u'5', u'6', u'7']","{u'mouseover': {u'state': {u'target': [], u'time': []}, u'edge': {u'target': [], u'time': []}}, u'click': {u'state': {u'target': [], u'time': []}, u'edge': {u'target': [], u'time': []}}, u'mouseout': {u'state': {u'target': [], u'time': []}, u'edge': {u'target': [], u'time': []}}}","[10, 10, 10]","[1562, 391, 1650]",30.0,"[None, None, None]","[u'', -5, 5, 5, -10, 10, 10, 10, -5, 5, -5, 5, 10]",92604,8.0,-2.6104954135648773e+18,mouselab-mdp,0
"[1137, 1949, 2978]","[u'up', u'up', u'left']",train_basic,"[u'0', u'1', u'2', u'4']","{u'mouseover': {u'state': {u'target': [], u'time': []}, u'edge': {u'target': [], u'time': []}}, u'click': {u'state': {u'target': [], u'time': []}, u'edge': {u'target': [], u'time': []}}, u'mouseout': {u'state': {u'target': [], u'time': []}, u'edge': {u'target': [], u'time': []}}}","[10, 10, 10]","[1135, 316, 512]",30.0,"[None, None, None]","[u'', 10, 10, 5, 10, -10, 10, -10, -10, -5, -10, 5, -10]",98153,9.0,4.981813421836143e+18,mouselab-mdp,0
"[12564, 13430, 14692]","[u'left', u'left', u'up']",train_hidden,"[u'0', u'9', u'10', u'11']","{u'mouseover': {u'state': {u'target': [], u'time': []}, u'edge': {u'target': [], u'time': []}}, u'click': {u'state': {u'target': [], u'time': []}, u'edge': {u'target': [], u'time': []}}, u'mouseout': {u'state': {u'target': [], u'time': []}, u'edge': {u'target': [], u'time': []}}}","[10, 10, 5]","[12561, 368, 747]",25.0,"[None, None, None]","[u'', 5, 10, -10, -10, 10, 5, -10, 10, 10, 10, 5, -10]",119311,10.0,-8.624537318595376e+18,mouselab-mdp,0
"[1769, 2483, 3736]","[u'up', u'up', u'left']",train_hidden,"[u'0', u'1', u'2', u'4']","{u'mouseover': {u'state': {u'target': [], u'time': []}, u'edge': {u'target': [], u'time': []}}, u'click': {u'state': {u'target': [], u'time': []}, u'edge': {u'target': [], u'time': []}}, u'mouseout': {u'state': {u'target': [], u'time': []}, u'edge': {u'target': [], u'time': []}}}","[10, -5, -5]","[1766, 218, 738]",0.0,"[None, None, None]","[u'', 10, -5, 5, -5, -5, -5, -5, -5, 5, -5, 10, 5]",126283,11.0,1.3034732393768448e+18,mouselab-mdp,0
"[3325, 4116, 6144]","[u'up', u'up', u'right']",train_hidden,"[u'0', u'1', u'2', u'3']","{u'mouseover': {u'state': {u'target': [], u'time': []}, u'edge': {u'target': [], u'time': []}}, u'click': {u'state': {u'target': [], u'time': []}, u'edge': {u'target': [], u'time': []}}, u'mouseout': {u'state': {u'target': [], u'time': []}, u'edge': {u'target': [], u'time': []}}}","[10, 10, -10]","[3324, 290, 1519]",10.0,"[None, None, None]","[u'', 10, 10, -10, -10, -10, 10, -10, -5, 10, 5, 5, -5]",135272,12.0,1.2413699960697694e+17,mouselab-mdp,0
"[1956, 2808, 5082]","[u'right', u'right', u'up']",train_hidden,"[u'0', u'5', u'6', u'7']","{u'mouseover': {u'state': {u'target': [], u'time': []}, u'edge': {u'target': [], u'time': []}}, u'click': {u'state': {u'target': [], u'time': []}, u'edge': {u'target': [], u'time': []}}, u'mouseout': {u'state': {u'target': [], u'time': []}, u'edge': {u'target': [], u'time': []}}}","[5, 5, 10]","[1954, 348, 1756]",20.0,"[None, None, None]","[u'', 10, -5, -10, -5, 5, 5, 10, -10, -10, 5, 10, -10]",143035,13.0,-8.642469369171842e+18,mouselab-mdp,0
"[2072, 2876, 4082]","[u'left', u'left', u'down']",train_hidden,"[u'0', u'9', u'10', u'12']","{u'mouseover': {u'state': {u'target': [], u'time': []}, u'edge': {u'target': [], u'time': []}}, u'click': {u'state': {u'target': [], u'time': []}, u'edge': {u'target': [], u'time': []}}, u'mouseout': {u'state': {u'target': [], u'time': []}, u'edge': {u'target': [], u'time': []}}}","[-10, -5, 10]","[2071, 310, 683]",-5.0,"[None, None, None]","[u'', -5, -5, 10, 5, -5, -5, -10, -5, -10, -5, 5, 10]",149993,14.0,-2.317078987107653e+18,mouselab-mdp,0
"[25368, 26776, 28459]","[u'right', u'right', u'up']",train_inspector,"[u'0', u'5', u'6', u'7']","{u'mouseover': {u'state': {u'target': [], u'time': []}, u'edge': {u'target': [], u'time': []}}, u'click': {u'state': {u'target': [u'1', u'9'], u'time': [19936, 21354]}, u'edge': {u'target': [], u'time': []}}, u'mouseout': {u'state': {u'target': [], u'time': []}, u'edge': {u'target': [], u'time': []}}}","[-5, -10, -10]","[25366, 893, 1178]",-25.0,"[None, None, None]","[u'', -10, -10, -10, -10, -5, -10, -10, 10, -5, 5, -5, -5]",184025,15.0,4.1891588108237983e+18,mouselab-mdp,0
"[4244, 5087, 6686]","[u'left', u'left', u'down']",train_inspector,"[u'0', u'9', u'10', u'12']","{u'mouseover': {u'state': {u'target': [], u'time': []}, u'edge': {u'target': [], u'time': []}}, u'click': {u'state': {u'target': [u'9'], u'time': [2229]}, u'edge': {u'target': [], u'time': []}}, u'mouseout': {u'state': {u'target': [], u'time': []}, u'edge': {u'target': [], u'time': []}}}","[10, 5, 5]","[4242, 332, 1081]",20.0,"[None, None, None]","[u'', 5, 5, -5, 10, 5, -10, -5, 10, 10, 5, 5, 5]",193360,16.0,5.627389738084794e+17,mouselab-mdp,0
"[6481, 7570, 9398]","[u'left', u'left', u'up']",train_inspector,"[u'0', u'9', u'10', u'11']","{u'mouseover': {u'state': {u'target': [], u'time': []}, u'edge': {u'target': [], u'time': []}}, u'click': {u'state': {u'target': [u'1', u'5'], u'time': [2494, 4058]}, u'edge': {u'target': [], u'time': []}}, u'mouseout': {u'state': {u'target': [], u'time': []}, u'edge': {u'target': [], u'time': []}}}","[10, -5, 5]","[6479, 569, 1313]",10.0,"[None, None, None]","[u'', -5, 5, -10, -5, -5, 5, 10, -5, 10, -5, 5, -10]",205606,17.0,8.572648276602424e+18,mouselab-mdp,0
"[3695, 4565, 6296]","[u'left', u'left', u'down']",train_inspector,"[u'0', u'9', u'10', u'12']","{u'mouseover': {u'state': {u'target': [], u'time': []}, u'edge': {u'target': [], u'time': []}}, u'click': {u'state': {u'target': [u'9'], u'time': [2085]}, u'edge': {u'target': [], u'time': []}}, u'mouseout': {u'state': {u'target': [], u'time': []}, u'edge': {u'target': [], u'time': []}}}","[10, -10, 5]","[3694, 361, 1224]",5.0,"[None, None, None]","[u'', -5, 5, -5, -5, -10, -10, 10, -5, 10, -10, -5, 5]",214404,18.0,8.077601249506434e+18,mouselab-mdp,0
"[6795, 7548, 9169]","[u'right', u'right', u'up']",train_inspector,"[u'0', u'5', u'6', u'7']","{u'mouseover': {u'state': {u'target': [], u'time': []}, u'edge': {u'target': [], u'time': []}}, u'click': {u'state': {u'target': [u'1', u'5'], u'time': [1711, 4850]}, u'edge': {u'target': [], u'time': []}}, u'mouseout': {u'state': {u'target': [], u'time': []}, u'edge': {u'target': [], u'time': []}}}","[5, -5, 5]","[6794, 237, 1106]",5.0,"[None, None, None]","[u'', 5, 5, -5, 10, 5, -5, 5, 5, 5, -5, -10, -5]",226335,19.0,7.374792400222714e+18,mouselab-mdp,0
"[16431, 18947, 21417]","[u'up', u'up', u'left']",train_inspect_cost,"[u'0', u'1', u'2', u'4']","{u'mouseover': {u'state': {u'target': [], u'time': []}, u'edge': {u'target': [], u'time': []}}, u'click': {u'state': {u'target': [], u'time': []}, u'edge': {u'target': [], u'time': []}}, u'mouseout': {u'state': {u'target': [], u'time': []}, u'edge': {u'target': [], u'time': []}}}","[-10, 5, -5]","[16429, 2020, 1958]",-10.0,"[None, None, None]","[u'', -10, 5, 5, -5, 10, 5, -10, -10, -10, -5, -10, 5]",253704,20.0,6.62653966049298e+17,mouselab-mdp,0
"[1455, 2733, 4118]","[u'right', u'right', u'down']",train_inspect_cost,"[u'0', u'5', u'6', u'8']","{u'mouseover': {u'state': {u'target': [], u'time': []}, u'edge': {u'target': [], u'time': []}}, u'click': {u'state': {u'target': [], u'time': []}, u'edge': {u'target': [], u'time': []}}, u'mouseout': {u'state': {u'target': [], u'time': []}, u'edge': {u'target': [], u'time': []}}}","[10, -10, 10]","[1454, 758, 875]",10.0,"[None, None, None]","[u'', 5, 5, -5, 5, 10, -10, -10, 10, 5, 5, -10, -5]",260767,21.0,-5.368470092922741e+18,mouselab-mdp,0
"[1742, 3303, 4785]","[u'left', u'left', u'down']",train_inspect_cost,"[u'0', u'9', u'10', u'12']","{u'mouseover': {u'state': {u'target': [], u'time': []}, u'edge': {u'target': [], u'time': []}}, u'click': {u'state': {u'target': [], u'time': []}, u'edge': {u'target': [], u'time': []}}, u'mouseout': {u'state': {u'target': [], u'time': []}, u'edge': {u'target': [], u'time': []}}}","[10, -5, -5]","[1740, 1063, 960]",0.0,"[None, None, None]","[u'', 10, -5, -10, -10, -10, 10, -10, -5, 10, -5, 10, -5]",268672,22.0,9.076059563084848e+18,mouselab-mdp,0
"[1096, 2055, 2901]","[u'left', u'left', u'up']",train_inspect_cost,"[u'0', u'9', u'10', u'11']","{u'mouseover': {u'state': {u'target': [], u'time': []}, u'edge': {u'target': [], u'time': []}}, u'click': {u'state': {u'target': [], u'time': []}, u'edge': {u'target': [], u'time': []}}, u'mouseout': {u'state': {u'target': [], u'time': []}, u'edge': {u'target': [], u'time': []}}}","[-5, 10, -5]","[1095, 467, 331]",0.0,"[None, None, None]","[u'', -5, 10, -5, 10, 5, -5, 10, 5, -5, 10, -5, -5]",274525,23.0,7.213920450040262e+18,mouselab-mdp,0
"[841, 1921, 2958]","[u'up', u'up', u'left']",train_inspect_cost,"[u'0', u'1', u'2', u'4']","{u'mouseover': {u'state': {u'target': [], u'time': []}, u'edge': {u'target': [], u'time': []}}, u'click': {u'state': {u'target': [], u'time': []}, u'edge': {u'target': [], u'time': []}}, u'mouseout': {u'state': {u'target': [], u'time': []}, u'edge': {u'target': [], u'time': []}}}","[5, 10, -5]","[839, 576, 530]",10.0,"[None, None, None]","[u'', 5, 10, 10, -5, 5, 10, -5, 5, -10, -5, -10, 5]",279965,24.0,5.25598264187708e+18,mouselab-mdp,0
"[51824, 52865, 60434]","[u'right', u'right', u'up']",train_final,"[u'0', u'5', u'6', u'7']","{u'mouseover': {u'state': {u'target': [], u'time': []}, u'edge': {u'target': [], u'time': []}}, u'click': {u'state': {u'target': [u'1', u'5'], u'time': [48412, 49447]}, u'edge': {u'target': [], u'time': []}}, u'mouseout': {u'state': {u'target': [], u'time': []}, u'edge': {u'target': [], u'time': []}}}","[5, -10, -10]","[51822, 528, 7046]",-17.0,"[None, None, None]","[u'', -5, -10, -10, -5, 5, -10, -10, 10, -5, 5, -10, -10]",351912,25.0,1.960338415622663e+18,mouselab-mdp,0
"[1230, 2286, 3399]","[u'up', u'up', u'left']",train_final,"[u'0', u'1', u'2', u'4']","{u'mouseover': {u'state': {u'target': [], u'time': []}, u'edge': {u'target': [], u'time': []}}, u'click': {u'state': {u'target': [], u'time': []}, u'edge': {u'target': [], u'time': []}}, u'mouseout': {u'state': {u'target': [], u'time': []}, u'edge': {u'target': [], u'time': []}}}","[-5, -10, 5]","[1229, 542, 592]",-10.0,"[None, None, None]","[u'', -5, -10, -10, 5, -10, -5, -5, -10, 5, -10, 5, 5]",357992,26.0,7.710656893126775e+18,mouselab-mdp,0
"[559, 1483, 3205]","[u'left', u'left', u'up']",train_final,"[u'0', u'9', u'10', u'11']","{u'mouseover': {u'state': {u'target': [], u'time': []}, u'edge': {u'target': [], u'time': []}}, u'click': {u'state': {u'target': [], u'time': []}, u'edge': {u'target': [], u'time': []}}, u'mouseout': {u'state': {u'target': [], u'time': []}, u'edge': {u'target': [], u'time': []}}}","[5, 10, -10]","[557, 426, 1232]",5.0,"[None, None, None]","[u'', -5, 10, 5, -10, 10, 5, -10, -5, 5, 10, -10, 10]",363590,27.0,-9.148803387183103e+18,mouselab-mdp,0
"[5600, 6531, 7434]","[u'up', u'up', u'right']",train_final,"[u'0', u'1', u'2', u'3']","{u'mouseover': {u'state': {u'target': [], u'time': []}, u'edge': {u'target': [], u'time': []}}, u'click': {u'state': {u'target': [], u'time': []}, u'edge': {u'target': [], u'time': []}}, u'mouseout': {u'state': {u'target': [], u'time': []}, u'edge': {u'target': [], u'time': []}}}","[-5, 10, 5]","[5599, 430, 382]",10.0,"[None, None, None]","[u'', -5, 10, 5, 10, 5, 5, -5, 5, 10, 10, 10, 5]",373681,28.0,-6.877572132778754e+18,mouselab-mdp,0
"[1064, 1952, 3769]","[u'left', u'left', u'down']",train_final,"[u'0', u'9', u'10', u'12']","{u'mouseover': {u'state': {u'target': [], u'time': []}, u'edge': {u'target': [], u'time': []}}, u'click': {u'state': {u'target': [], u'time': []}, u'edge': {u'target': [], u'time': []}}, u'mouseout': {u'state': {u'target': [], u'time': []}, u'edge': {u'target': [], u'time': []}}}","[5, 10, -10]","[1063, 372, 1310]",5.0,"[None, None, None]","[u'', -5, 10, 5, 10, 5, -5, 10, -10, 5, 10, 5, -10]",379937,29.0,7.308726088184663e+18,mouselab-mdp,0
"[9435, 10935, 13039]","[u'left', u'left', u'up']",test,"[u'0', u'9', u'10', u'11']","{u'mouseover': {u'state': {u'target': [], u'time': []}, u'edge': {u'target': [], u'time': []}}, u'click': {u'state': {u'target': [u'1'], u'time': [3843]}, u'edge': {u'target': [], u'time': []}}, u'mouseout': {u'state': {u'target': [], u'time': []}, u'edge': {u'target': [], u'time': []}}}","[5, 5, 5]","[9432, 988, 1590]",14.0,"[None, None, None]","[u'', -5, 10, 5, 10, -5, -10, 10, 10, 5, 5, 5, 10]",475622,30.0,8.130696467842232e+18,mouselab-mdp,0
"[1949, 3367, 4963]","[u'up', u'up', u'right']",test,"[u'0', u'1', u'2', u'3']","{u'mouseover': {u'state': {u'target': [], u'time': []}, u'edge': {u'target': [], u'time': []}}, u'click': {u'state': {u'target': [], u'time': []}, u'edge': {u'target': [], u'time': []}}, u'mouseout': {u'state': {u'target': [], u'time': []}, u'edge': {u'target': [], u'time': []}}}","[-5, -10, 5]","[1946, 899, 1078]",-10.0,"[None, None, None]","[u'', -5, -10, 5, 5, 5, -5, 5, -10, -5, -5, -5, -10]",483757,31.0,-7.611027172769307e+18,mouselab-mdp,0
"[4287, 5470, 6837]","[u'up', u'up', u'left']",test,"[u'0', u'1', u'2', u'4']","{u'mouseover': {u'state': {u'target': [], u'time': []}, u'edge': {u'target': [], u'time': []}}, u'click': {u'state': {u'target': [u'5'], u'time': [2230]}, u'edge': {u'target': [], u'time': []}}, u'mouseout': {u'state': {u'target': [], u'time': []}, u'edge': {u'target': [], u'time': []}}}","[-10, -5, -5]","[4286, 681, 860]",-21.0,"[None, None, None]","[u'', -10, -5, 10, -5, -10, 5, -10, 10, -5, -10, 5, 10]",493358,32.0,8.491606456270313e+18,mouselab-mdp,0
"[851, 1901, 2900]","[u'left', u'left', u'down']",test,"[u'0', u'9', u'10', u'12']","{u'mouseover': {u'state': {u'target': [], u'time': []}, u'edge': {u'target': [], u'time': []}}, u'click': {u'state': {u'target': [], u'time': []}, u'edge': {u'target': [], u'time': []}}, u'mouseout': {u'state': {u'target': [], u'time': []}, u'edge': {u'target': [], u'time': []}}}","[-5, 10, -5]","[849, 553, 500]",0.0,"[None, None, None]","[u'', -10, -10, 10, -10, -5, -10, 10, 5, -5, 10, 5, -5]",498836,33.0,5.603840126336082e+18,mouselab-mdp,0
"[4041, 4893, 6568]","[u'right', u'right', u'up']",test,"[u'0', u'5', u'6', u'7']","{u'mouseover': {u'state': {u'target': [], u'time': []}, u'edge': {u'target': [], u'time': []}}, u'click': {u'state': {u'target': [u'5'], u'time': [2364]}, u'edge': {u'target': [], u'time': []}}, u'mouseout': {u'state': {u'target': [], u'time': []}, u'edge': {u'target': [], u'time': []}}}","[5, 5, -10]","[4039, 336, 1163]",-1.0,"[None, None, None]","[u'', -5, 10, -5, 10, 5, 5, -10, 10, -5, 5, -5, -10]",508014,34.0,-1.6198589960716582e+18,mouselab-mdp,0
"[23424, 24377, 25341]","[u'up', u'up', u'left']",test,"[u'0', u'1', u'2', u'4']","{u'mouseover': {u'state': {u'target': [], u'time': []}, u'edge': {u'target': [], u'time': []}}, u'click': {u'state': {u'target': [u'9'], u'time': [21726]}, u'edge': {u'target': [], u'time': []}}, u'mouseout': {u'state': {u'target': [], u'time': []}, u'edge': {u'target': [], u'time': []}}}","[5, 5, 10]","[23422, 443, 438]",19.0,"[None, None, None]","[u'', 5, 5, 5, 10, 5, -5, -5, -10, -5, -10, 10, -10]",536523,35.0,5.189627300054367e+18,mouselab-mdp,0
"[4923, 5654, 8197]","[u'right', u'right', u'down']",test,"[u'0', u'5', u'6', u'8']","{u'mouseover': {u'state': {u'target': [], u'time': []}, u'edge': {u'target': [], u'time': []}}, u'click': {u'state': {u'target': [u'5'], u'time': [3218]}, u'edge': {u'target': [], u'time': []}}, u'mouseout': {u'state': {u'target': [], u'time': []}, u'edge': {u'target': [], u'time': []}}}","[10, -10, 5]","[4920, 208, 2023]",4.0,"[None, None, None]","[u'', -5, 5, 10, -10, 10, -10, 10, 5, -5, -10, 5, 10]",547577,36.0,4.754602433487655e+18,mouselab-mdp,0
"[4097, 4811, 6528]","[u'left', u'left', u'up']",test,"[u'0', u'9', u'10', u'11']","{u'mouseover': {u'state': {u'target': [], u'time': []}, u'edge': {u'target': [], u'time': []}}, u'click': {u'state': {u'target': [u'9'], u'time': [2109]}, u'edge': {u'target': [], u'time': []}}, u'mouseout': {u'state': {u'target': [], u'time': []}, u'edge': {u'target': [], u'time': []}}}","[10, -10, -5]","[4095, 193, 1200]",-6.0,"[None, None, None]","[u'', 10, -5, 5, 5, 10, 5, 10, -10, 10, -10, -5, 10]",556802,37.0,-3.683992464584856e+18,mouselab-mdp,0
"[5252, 6523, 8911]","[u'left', u'left', u'up']",test,"[u'0', u'9', u'10', u'11']","{u'mouseover': {u'state': {u'target': [], u'time': []}, u'edge': {u'target': [], u'time': []}}, u'click': {u'state': {u'target': [u'1'], u'time': [3397]}, u'edge': {u'target': [], u'time': []}}, u'mouseout': {u'state': {u'target': [], u'time': []}, u'edge': {u'target': [], u'time': []}}}","[-5, -5, 10]","[5251, 750, 1869]",-1.0,"[None, None, None]","[u'', -5, 10, 5, -5, -10, -5, 5, -5, -5, -5, 10, -5]",569840,38.0,6.150233340115579e+18,mouselab-mdp,0
"[2407, 3503, 5430]","[u'right', u'right', u'up']",test,"[u'0', u'5', u'6', u'7']","{u'mouseover': {u'state': {u'target': [], u'time': []}, u'edge': {u'target': [], u'time': []}}, u'click': {u'state': {u'target': [], u'time': []}, u'edge': {u'target': [], u'time': []}}, u'mouseout': {u'state': {u'target': [], u'time': []}, u'edge': {u'target': [], u'time': []}}}","[-10, 10, 10]","[2405, 568, 1402]",10.0,"[None, None, None]","[u'', 10, -5, -10, 10, -10, 10, 10, -5, 5, 5, 5, 10]",577995,39.0,-6.044130621866826e+18,mouselab-mdp,0
"[2580, 5461, 6431]","[u'right', u'right', u'up']",test,"[u'0', u'5', u'6', u'7']","{u'mouseover': {u'state': {u'target': [], u'time': []}, u'edge': {u'target': [], u'time': []}}, u'click': {u'state': {u'target': [], u'time': []}, u'edge': {u'target': [], u'time': []}}, u'mouseout': {u'state': {u'target': [], u'time': []}, u'edge': {u'target': [], u'time': []}}}","[-5, -5, 10]","[2578, 2373, 471]",0.0,"[None, None, None]","[u'', 5, -5, -10, -5, -5, -5, 10, -5, 10, 5, 10, -5]",586990,40.0,1.1475102415505539e+18,mouselab-mdp,0
"[667, 2019, 3094]","[u'up', u'up', u'right']",test,"[u'0', u'1', u'2', u'3']","{u'mouseover': {u'state': {u'target': [], u'time': []}, u'edge': {u'target': [], u'time': []}}, u'click': {u'state': {u'target': [], u'time': []}, u'edge': {u'target': [], u'time': []}}, u'mouseout': {u'state': {u'target': [], u'time': []}, u'edge': {u'target': [], u'time': []}}}","[-10, -10, -10]","[664, 821, 569]",-30.0,"[None, None, None]","[u'', -10, -10, -10, -10, 10, 5, 5, 10, -10, -5, 5, 10]",592515,41.0,-6.516136021771222e+18,mouselab-mdp,0
"[886, 1854, 3123]","[u'left', u'left', u'up']",test,"[u'0', u'9', u'10', u'11']","{u'mouseover': {u'state': {u'target': [], u'time': []}, u'edge': {u'target': [], u'time': []}}, u'click': {u'state': {u'target': [], u'time': []}, u'edge': {u'target': [], u'time': []}}, u'mouseout': {u'state': {u'target': [], u'time': []}, u'edge': {u'target': [], u'time': []}}}","[5, -5, 10]","[884, 451, 759]",10.0,"[None, None, None]","[u'', -10, -5, -5, 10, 10, -5, 5, -10, 5, -5, 10, 5]",598326,42.0,-4.641247981390103e+18,mouselab-mdp,0
"[4086, 5239, 6361]","[u'up', u'up', u'left']",test,"[u'0', u'1', u'2', u'4']","{u'mouseover': {u'state': {u'target': [], u'time': []}, u'edge': {u'target': [], u'time': []}}, u'click': {u'state': {u'target': [u'5'], u'time': [1606]}, u'edge': {u'target': [], u'time': []}}, u'mouseout': {u'state': {u'target': [], u'time': []}, u'edge': {u'target': [], u'time': []}}}","[5, -5, 10]","[4084, 650, 612]",9.0,"[None, None, None]","[u'', 5, -5, -10, 10, -10, -10, -5, -5, -10, 5, -10, 5]",607193,43.0,2.252076120381865e+18,mouselab-mdp,0
"[4783, 5543, 7431]","[u'left', u'left', u'down']",test,"[u'0', u'9', u'10', u'12']","{u'mouseover': {u'state': {u'target': [], u'time': []}, u'edge': {u'target': [], u'time': []}}, u'click': {u'state': {u'target': [u'9'], u'time': [3002]}, u'edge': {u'target': [], u'time': []}}, u'mouseout': {u'state': {u'target': [], u'time': []}, u'edge': {u'target': [], u'time': []}}}","[10, -5, 5]","[4782, 238, 1387]",9.0,"[None, None, None]","[u'', -10, -5, -10, 5, 10, 5, 10, -5, 10, -5, 10, 5]",617442,44.0,-8.549120811661888e+17,mouselab-mdp,0
"[4767, 5765, 6625]","[u'up', u'up', u'left']",test,"[u'0', u'1', u'2', u'4']","{u'mouseover': {u'state': {u'target': [], u'time': []}, u'edge': {u'target': [], u'time': []}}, u'click': {u'state': {u'target': [u'5'], u'time': [2998]}, u'edge': {u'target': [], u'time': []}}, u'mouseout': {u'state': {u'target': [], u'time': []}, u'edge': {u'target': [], u'time': []}}}","[-10, -5, -5]","[4766, 475, 346]",-21.0,"[None, None, None]","[u'', -10, -5, 5, -5, -10, 5, 5, 5, 10, 5, 10, -10]",627049,45.0,-5.4249062934784986e+17,mouselab-mdp,0
"[1128, 2029, 3147]","[u'left', u'left', u'up']",test,"[u'0', u'9', u'10', u'11']","{u'mouseover': {u'state': {u'target': [], u'time': []}, u'edge': {u'target': [], u'time': []}}, u'click': {u'state': {u'target': [], u'time': []}, u'edge': {u'target': [], u'time': []}}, u'mouseout': {u'state': {u'target': [], u'time': []}, u'edge': {u'target': [], u'time': []}}}","[5, -10, 10]","[1126, 400, 617]",5.0,"[None, None, None]","[u'', -10, -5, -5, 5, -5, 5, 5, 5, 5, -10, 10, 10]",633099,46.0,5.514906028833953e+18,mouselab-mdp,0
"[2054, 3013, 4016]","[u'left', u'left', u'up']",test,"[u'0', u'9', u'10', u'11']","{u'mouseover': {u'state': {u'target': [], u'time': []}, u'edge': {u'target': [], u'time': []}}, u'click': {u'state': {u'target': [], u'time': []}, u'edge': {u'target': [], u'time': []}}, u'mouseout': {u'state': {u'target': [], u'time': []}, u'edge': {u'target': [], u'time': []}}}","[-10, 5, 5]","[2052, 435, 501]",0.0,"[None, None, None]","[u'', -5, 10, 10, 5, 10, 10, 10, 10, -10, 5, 5, 5]",639572,47.0,-6.980762109714071e+18,mouselab-mdp,0
"[676, 1567, 2612]","[u'right', u'right', u'up']",test,"[u'0', u'5', u'6', u'7']","{u'mouseover': {u'state': {u'target': [], u'time': []}, u'edge': {u'target': [], u'time': []}}, u'click': {u'state': {u'target': [], u'time': []}, u'edge': {u'target': [], u'time': []}}, u'mouseout': {u'state': {u'target': [], u'time': []}, u'edge': {u'target': [], u'time': []}}}","[10, 10, -5]","[673, 368, 546]",15.0,"[None, None, None]","[u'', -5, -5, 5, 5, 10, 10, -5, 10, -10, -10, -10, 5]",644612,48.0,4.176600634517876e+18,mouselab-mdp,0
"[1924, 2845, 4000]","[u'right', u'right', u'down']",test,"[u'0', u'5', u'6', u'8']","{u'mouseover': {u'state': {u'target': [], u'time': []}, u'edge': {u'target': [], u'time': []}}, u'click': {u'state': {u'target': [], u'time': []}, u'edge': {u'target': [], u'time': []}}, u'mouseout': {u'state': {u'target': [], u'time': []}, u'edge': {u'target': [], u'time': []}}}","[10, -5, 5]","[1921, 409, 634]",10.0,"[None, None, None]","[u'', -10, 10, -5, -10, 10, -5, 10, 5, 10, 5, 10, -5]",650954,49.0,1.9920789159475208e+18,mouselab-mdp,0
"[9672, 12259, 13281]","[u'right', u'right', u'up']",train_basic,"[u'0', u'5', u'6', u'7']","{u'mouseover': {u'state': {u'target': [], u'time': []}, u'edge': {u'target': [], u'time': []}}, u'click': {u'state': {u'target': [], u'time': []}, u'edge': {u'target': [], u'time': []}}, u'mouseout': {u'state': {u'target': [], u'time': []}, u'edge': {u'target': [], u'time': []}}}","[10, -5, 10]","[9665, 2072, 512]",15.0,"[None, None, None]","[u'', 5, -10, 10, -10, 10, -5, 10, 5, 5, -10, -10, -10]",16433,0.0,-6.90593884411209e+17,mouselab-mdp,1
"[1379, 4734, 7046]","[u'right', u'right', u'up']",train_basic,"[u'0', u'5', u'6', u'7']","{u'mouseover': {u'state': {u'target': [], u'time': []}, u'edge': {u'target': [], u'time': []}}, u'click': {u'state': {u'target': [], u'time': []}, u'edge': {u'target': [], u'time': []}}, u'mouseout': {u'state': {u'target': [], u'time': []}, u'edge': {u'target': [], u'time': []}}}","[-10, 10, -5]","[1374, 2840, 1801]",-5.0,"[None, None, None]","[u'', 10, -10, -5, -5, -10, 10, -5, 5, -5, -10, -10, -10]",26295,1.0,-3.7612916714616883e+18,mouselab-mdp,1
"[1271, 2207, 13344]","[u'up', u'up', u'right']",train_basic,"[u'0', u'1', u'2', u'3']","{u'mouseover': {u'state': {u'target': [], u'time': []}, u'edge': {u'target': [], u'time': []}}, u'click': {u'state': {u'target': [], u'time': []}, u'edge': {u'target': [], u'time': []}}, u'mouseout': {u'state': {u'target': [], u'time': []}, u'edge': {u'target': [], u'time': []}}}","[-5, 10, 5]","[1265, 419, 10623]",10.0,"[None, None, None]","[u'', -5, 10, 5, -5, -10, -5, 5, -5, -5, -5, 10, -5]",42192,2.0,6.150233340115579e+18,mouselab-mdp,1
"[1551, 2398, 3416]","[u'left', u'left', u'up']",train_basic,"[u'0', u'9', u'10', u'11']","{u'mouseover': {u'state': {u'target': [], u'time': []}, u'edge': {u'target': [], u'time': []}}, u'click': {u'state': {u'target': [], u'time': []}, u'edge': {u'target': [], u'time': []}}, u'mouseout': {u'state': {u'target': [], u'time': []}, u'edge': {u'target': [], u'time': []}}}","[5, 5, 5]","[1544, 337, 503]",15.0,"[None, None, None]","[u'', -5, 10, 5, 10, -5, -10, 10, 10, 5, 5, 5, 10]",48305,3.0,8.130696467842232e+18,mouselab-mdp,1
"[1224, 1992, 2784]","[u'left', u'left', u'up']",train_basic,"[u'0', u'9', u'10', u'11']","{u'mouseover': {u'state': {u'target': [], u'time': []}, u'edge': {u'target': [], u'time': []}}, u'click': {u'state': {u'target': [], u'time': []}, u'edge': {u'target': [], u'time': []}}, u'mouseout': {u'state': {u'target': [], u'time': []}, u'edge': {u'target': [], u'time': []}}}","[10, 5, 10]","[1218, 246, 270]",25.0,"[None, None, None]","[u'', 5, 10, 10, 10, -10, -10, 5, 10, 10, 5, 10, 5]",53353,4.0,2.0301359460781466e+18,mouselab-mdp,1
"[878, 2029, 2669]","[u'left', u'left', u'up']",train_basic,"[u'0', u'9', u'10', u'11']","{u'mouseover': {u'state': {u'target': [], u'time': []}, u'edge': {u'target': [], u'time': []}}, u'click': {u'state': {u'target': [], u'time': []}, u'edge': {u'target': [], u'time': []}}, u'mouseout': {u'state': {u'target': [], u'time': []}, u'edge': {u'target': [], u'time': []}}}","[10, -5, 10]","[872, 635, 126]",15.0,"[None, None, None]","[u'', 10, -5, -10, -10, -10, 10, -10, -5, 10, -5, 10, -5]",58209,5.0,9.076059563084848e+18,mouselab-mdp,1
"[1087, 7176, 8464]","[u'up', u'up', u'left']",train_basic,"[u'0', u'1', u'2', u'4']","{u'mouseover': {u'state': {u'target': [], u'time': []}, u'edge': {u'target': [], u'time': []}}, u'click': {u'state': {u'target': [], u'time': []}, u'edge': {u'target': [], u'time': []}}, u'mouseout': {u'state': {u'target': [], u'time': []}, u'edge': {u'target': [], u'time': []}}}","[10, -10, -5]","[1082, 5569, 773]",-5.0,"[None, None, None]","[u'', 10, -10, -10, -5, -5, 10, 5, 10, -5, -10, -10, -5]",68721,6.0,-9.003921373543949e+18,mouselab-mdp,1
"[2260, 3132, 3820]","[u'left', u'left', u'up']",train_basic,"[u'0', u'9', u'10', u'11']","{u'mouseover': {u'state': {u'target': [], u'time': []}, u'edge': {u'target': [], u'time': []}}, u'click': {u'state': {u'target': [], u'time': []}, u'edge': {u'target': [], u'time': []}}, u'mouseout': {u'state': {u'target': [], u'time': []}, u'edge': {u'target': [], u'time': []}}}","[5, -5, 10]","[2254, 349, 179]",10.0,"[None, None, None]","[u'', -10, -5, -5, 10, 10, -5, 5, -10, 5, -5, 10, 5]",74896,7.0,-4.641247981390103e+18,mouselab-mdp,1
"[806, 1819, 2575]","[u'right', u'right', u'up']",train_basic,"[u'0', u'5', u'6', u'7']","{u'mouseover': {u'state': {u'target': [], u'time': []}, u'edge': {u'target': [], u'time': []}}, u'click': {u'state': {u'target': [], u'time': []}, u'edge': {u'target': [], u'time': []}}, u'mouseout': {u'state': {u'target': [], u'time': []}, u'edge': {u'target': [], u'time': []}}}","[10, -5, -10]","[800, 492, 235]",-5.0,"[None, None, None]","[u'', 10, 5, 10, -5, 10, -5, -10, 10, 5, -10, 10, 5]",79713,8.0,3.6441571471145324e+18,mouselab-mdp,1
"[1954, 2721, 3785]","[u'left', u'left', u'up']",train_basic,"[u'0', u'9', u'10', u'11']","{u'mouseover': {u'state': {u'target': [], u'time': []}, u'edge': {u'target': [], u'time': []}}, u'click': {u'state': {u'target': [], u'time': []}, u'edge': {u'target': [], u'time': []}}, u'mouseout': {u'state': {u'target': [], u'time': []}, u'edge': {u'target': [], u'time': []}}}","[5, -5, -5]","[1948, 251, 549]",-5.0,"[None, None, None]","[u'', -10, -5, -5, 5, -10, -10, -10, -10, 5, -5, -5, 5]",85325,9.0,-9.136662483728007e+18,mouselab-mdp,1
"[2687, 3781, 5221]","[u'up', u'up', u'right']",train_hidden,"[u'0', u'1', u'2', u'3']","{u'mouseover': {u'state': {u'target': [], u'time': []}, u'edge': {u'target': [], u'time': []}}, u'click': {u'state': {u'target': [], u'time': []}, u'edge': {u'target': [], u'time': []}}, u'mouseout': {u'state': {u'target': [], u'time': []}, u'edge': {u'target': [], u'time': []}}}","[10, 10, 5]","[2681, 564, 931]",25.0,"[None, None, None]","[u'', 10, 10, 5, 10, -10, -10, -5, -5, 10, -5, 5, 10]",94792,10.0,-3.019010559255296e+18,mouselab-mdp,1
"[402, 1115, 1780]","[u'up', u'up', u'right']",train_hidden,"[u'0', u'1', u'2', u'3']","{u'mouseover': {u'state': {u'target': [], u'time': []}, u'edge': {u'target': [], u'time': []}}, u'click': {u'state': {u'target': [], u'time': []}, u'edge': {u'target': [], u'time': []}}, u'mouseout': {u'state': {u'target': [], u'time': []}, u'edge': {u'target': [], u'time': []}}}","[-5, 5, -5]","[397, 188, 153]",-5.0,"[None, None, None]","[u'', -5, 5, -5, 10, -5, 10, 10, 10, -5, -10, -10, -5]",98401,11.0,3.7409315186213e+18,mouselab-mdp,1
"[9828, 10708, 11371]","[u'up', u'up', u'right']",train_hidden,"[u'0', u'1', u'2', u'3']","{u'mouseover': {u'state': {u'target': [], u'time': []}, u'edge': {u'target': [], u'time': []}}, u'click': {u'state': {u'target': [], u'time': []}, u'edge': {u'target': [], u'time': []}}, u'mouseout': {u'state': {u'target': [], u'time': []}, u'edge': {u'target': [], u'time': []}}}","[5, 5, 5]","[9823, 355, 152]",15.0,"[None, None, None]","[u'', 5, 5, 5, 5, -10, -10, 5, 10, -10, -5, -5, -5]",111903,12.0,-5.299628366905943e+18,mouselab-mdp,1
"[113, 681, 1305]","[u'up', u'up', u'right']",train_hidden,"[u'0', u'1', u'2', u'3']","{u'mouseover': {u'state': {u'target': [], u'time': []}, u'edge': {u'target': [], u'time': []}}, u'click': {u'state': {u'target': [], u'time': []}, u'edge': {u'target': [], u'time': []}}, u'mouseout': {u'state': {u'target': [], u'time': []}, u'edge': {u'target': [], u'time': []}}}","[5, 5, -10]","[108, 32, 85]",0.0,"[None, None, None]","[u'', 5, 5, -10, 5, -10, 10, 5, -10, 10, -10, 10, 5]",115149,13.0,7.494910043448008e+18,mouselab-mdp,1
"[478, 1158, 1814]","[u'up', u'up', u'right']",train_hidden,"[u'0', u'1', u'2', u'3']","{u'mouseover': {u'state': {u'target': [], u'time': []}, u'edge': {u'target': [], u'time': []}}, u'click': {u'state': {u'target': [], u'time': []}, u'edge': {u'target': [], u'time': []}}, u'mouseout': {u'state': {u'target': [], u'time': []}, u'edge': {u'target': [], u'time': []}}}","[-5, -10, -5]","[471, 165, 138]",-20.0,"[None, None, None]","[u'', -5, -10, -5, 10, 10, 10, 10, -10, -10, -10, -5, -10]",118904,14.0,2.356810097693599e+18,mouselab-mdp,1
"[1519, 2254, 3030]","[u'left', u'left', u'up']",train_inspector,"[u'0', u'9', u'10', u'11']","{u'mouseover': {u'state': {u'target': [], u'time': []}, u'edge': {u'target': [], u'time': []}}, u'click': {u'state': {u'target': [], u'time': []}, u'edge': {u'target': [], u'time': []}}, u'mouseout': {u'state': {u'target': [], u'time': []}, u'edge': {u'target': [], u'time': []}}}","[5, 10, -10]","[1511, 216, 258]",5.0,"[None, None, None]","[u'', 5, -5, 10, -5, -5, 5, 10, -10, 5, 10, -10, 5]",125672,15.0,4.859092002678591e+18,mouselab-mdp,1
"[636, 1219, 1818]","[u'up', u'up', u'right']",train_inspector,"[u'0', u'1', u'2', u'3']","{u'mouseover': {u'state': {u'target': [], u'time': []}, u'edge': {u'target': [], u'time': []}}, u'click': {u'state': {u'target': [], u'time': []}, u'edge': {u'target': [], u'time': []}}, u'mouseout': {u'state': {u'target': [], u'time': []}, u'edge': {u'target': [], u'time': []}}}","[-10, 10, 10]","[630, 68, 82]",10.0,"[None, None, None]","[u'', -10, 10, 10, -5, -5, 10, -5, -10, 10, 10, -5, 10]",129391,16.0,-4.1003180650031995e+18,mouselab-mdp,1
"[458, 1803, 2388]","[u'up', u'up', u'right']",train_inspector,"[u'0', u'1', u'2', u'3']","{u'mouseover': {u'state': {u'target': [], u'time': []}, u'edge': {u'target': [], u'time': []}}, u'click': {u'state': {u'target': [], u'time': []}, u'edge': {u'target': [], u'time': []}}, u'mouseout': {u'state': {u'target': [], u'time': []}, u'edge': {u'target': [], u'time': []}}}","[-10, -5, -5]","[453, 820, 69]",-20.0,"[None, None, None]","[u'', -10, -5, -5, 10, 10, 10, 5, -5, -5, 10, 5, 10]",133705,17.0,-2.464562972607473e+18,mouselab-mdp,1
"[192, 848, 1363]","[u'up', u'up', u'right']",train_inspector,"[u'0', u'1', u'2', u'3']","{u'mouseover': {u'state': {u'target': [], u'time': []}, u'edge': {u'target': [], u'time': []}}, u'click': {u'state': {u'target': [], u'time': []}, u'edge': {u'target': [], u'time': []}}, u'mouseout': {u'state': {u'target': [], u'time': []}, u'edge': {u'target': [], u'time': []}}}","[-10, 10, 5]","[187, 138, 2]",5.0,"[None, None, None]","[u'', -10, 10, 5, 5, -5, -10, -10, -5, -10, -10, 5, 5]",136832,18.0,3.4622403069545196e+18,mouselab-mdp,1
"[565, 1176, 2005]","[u'right', u'right', u'up']",train_inspector,"[u'0', u'5', u'6', u'7']","{u'mouseover': {u'state': {u'target': [], u'time': []}, u'edge': {u'target': [], u'time': []}}, u'click': {u'state': {u'target': [], u'time': []}, u'edge': {u'target': [], u'time': []}}, u'mouseout': {u'state': {u'target': [], u'time': []}, u'edge': {u'target': [], u'time': []}}}","[-10, 5, 5]","[559, 97, 309]",0.0,"[None, None, None]","[u'', 5, -5, -5, -5, -10, 5, 5, -10, 10, 10, 10, 10]",140832,19.0,6.349377679140465e+18,mouselab-mdp,1
"[2637, 3966, 4725]","[u'right', u'right', u'up']",train_inspect_cost,"[u'0', u'5', u'6', u'7']","{u'mouseover': {u'state': {u'target': [], u'time': []}, u'edge': {u'target': [], u'time': []}}, u'click': {u'state': {u'target': [], u'time': []}, u'edge': {u'target': [], u'time': []}}, u'mouseout': {u'state': {u'target': [], u'time': []}, u'edge': {u'target': [], u'time': []}}}","[10, -10, 10]","[2632, 807, 248]",10.0,"[None, None, None]","[u'', -5, -5, 10, -5, 10, -10, 10, -10, 5, -10, 5, -10]",155128,20.0,3.9686635761738235e+18,mouselab-mdp,1
"[378, 994, 1594]","[u'up', u'up', u'right']",train_inspect_cost,"[u'0', u'1', u'2', u'3']","{u'mouseover': {u'state': {u'target': [], u'time': []}, u'edge': {u'target': [], u'time': []}}, u'click': {u'state': {u'target': [], u'time': []}, u'edge': {u'target': [], u'time': []}}, u'mouseout': {u'state': {u'target': [], u'time': []}, u'edge': {u'target': [], u'time': []}}}","[-5, 5, -5]","[372, 97, 79]",-5.0,"[None, None, None]","[u'', -5, 5, -5, -5, -10, -10, 10, -5, 10, -10, -5, 5]",158728,21.0,8.077601249506434e+18,mouselab-mdp,1
"[867, 1402, 2763]","[u'up', u'up', u'left']",train_inspect_cost,"[u'0', u'1', u'2', u'4']","{u'mouseover': {u'state': {u'target': [], u'time': []}, u'edge': {u'target': [], u'time': []}}, u'click': {u'state': {u'target': [], u'time': []}, u'edge': {u'target': [], u'time': []}}, u'mouseout': {u'state': {u'target': [], u'time': []}, u'edge': {u'target': [], u'time': []}}}","[-5, 10, 5]","[860, 14, 842]",10.0,"[None, None, None]","[u'', -5, 10, 10, 5, -5, 5, -10, 10, 10, -10, -10, -10]",163433,22.0,7.801448459840969e+18,mouselab-mdp,1
"[7, 567, 1743]","[u'up', u'up', u'right']",train_inspect_cost,"[u'0', u'1', u'2', u'3']","{u'mouseover': {u'state': {u'target': [], u'time': []}, u'edge': {u'target': [], u'time': []}}, u'click': {u'state': {u'target': [], u'time': []}, u'edge': {u'target': [], u'time': []}}, u'mouseout': {u'state': {u'target': [], u'time': []}, u'edge': {u'target': [], u'time': []}}}","[10, -5, 5]","[2, 29, 639]",10.0,"[None, None, None]","[u'', 10, -5, 5, 5, 10, 5, 10, -10, 10, -10, -5, 10]",167129,23.0,-3.683992464584856e+18,mouselab-mdp,1
"[3945, 5203, 5776]","[u'up', u'up', u'right']",train_inspect_cost,"[u'0', u'1', u'2', u'3']","{u'mouseover': {u'state': {u'target': [], u'time': []}, u'edge': {u'target': [], u'time': []}}, u'click': {u'state': {u'target': [], u'time': []}, u'edge': {u'target': [], u'time': []}}, u'mouseout': {u'state': {u'target': [], u'time': []}, u'edge': {u'target': [], u'time': []}}}","[10, -5, -10]","[3940, 743, 41]",-5.0,"[None, None, None]","[u'', 10, -5, -10, -5, 5, 5, 10, -10, -10, 5, 10, -10]",175012,24.0,-8.642469369171842e+18,mouselab-mdp,1
"[3579, 4691, 5900]","[u'up', u'up', u'right']",train_final,"[u'0', u'1', u'2', u'3']","{u'mouseover': {u'state': {u'target': [], u'time': []}, u'edge': {u'target': [], u'time': []}}, u'click': {u'state': {u'target': [], u'time': []}, u'edge': {u'target': [], u'time': []}}, u'mouseout': {u'state': {u'target': [], u'time': []}, u'edge': {u'target': [], u'time': []}}}","[-5, 5, -5]","[3574, 600, 696]",-5.0,"[None, None, None]","[u'', -5, 5, -5, 5, -10, 10, -5, -10, -10, -10, 5, 5]",185769,25.0,8.808609661304966e+18,mouselab-mdp,1
"[1969, 2793, 3401]","[u'up', u'up', u'left']",train_final,"[u'0', u'1', u'2', u'4']","{u'mouseover': {u'state': {u'target': [], u'time': []}, u'edge': {u'target': [], u'time': []}}, u'click': {u'state': {u'target': [], u'time': []}, u'edge': {u'target': [], u'time': []}}, u'mouseout': {u'state': {u'target': [], u'time': []}, u'edge': {u'target': [], u'time': []}}}","[-10, -10, -10]","[1964, 307, 99]",-30.0,"[None, None, None]","[u'', -10, -10, 10, -10, -5, -10, 10, 5, -5, 10, 5, -5]",191161,26.0,5.603840126336082e+18,mouselab-mdp,1
"[1620, 2356, 3180]","[u'left', u'left', u'up']",train_final,"[u'0', u'9', u'10', u'11']","{u'mouseover': {u'state': {u'target': [], u'time': []}, u'edge': {u'target': [], u'time': []}}, u'click': {u'state': {u'target': [], u'time': []}, u'edge': {u'target': [], u'time': []}}, u'mouseout': {u'state': {u'target': [], u'time': []}, u'edge': {u'target': [], u'time': []}}}","[-5, 10, -10]","[1603, 227, 300]",-5.0,"[None, None, None]","[u'', -5, 5, 5, 5, 10, 10, -10, 5, -5, 10, -10, -5]",196273,27.0,9.142111453001215e+18,mouselab-mdp,1
"[683, 1291, 2787]","[u'right', u'right', u'up']",train_final,"[u'0', u'5', u'6', u'7']","{u'mouseover': {u'state': {u'target': [], u'time': []}, u'edge': {u'target': [], u'time': []}}, u'click': {u'state': {u'target': [], u'time': []}, u'edge': {u'target': [], u'time': []}}, u'mouseout': {u'state': {u'target': [], u'time': []}, u'edge': {u'target': [], u'time': []}}}","[10, -10, -10]","[678, 90, 981]",-10.0,"[None, None, None]","[u'', 5, 5, -5, 5, 10, -10, -10, 10, 5, 5, -10, -5]",201136,28.0,-5.368470092922741e+18,mouselab-mdp,1
"[987, 1755, 2603]","[u'right', u'right', u'up']",train_final,"[u'0', u'5', u'6', u'7']","{u'mouseover': {u'state': {u'target': [], u'time': []}, u'edge': {u'target': [], u'time': []}}, u'click': {u'state': {u'target': [], u'time': []}, u'edge': {u'target': [], u'time': []}}, u'mouseout': {u'state': {u'target': [], u'time': []}, u'edge': {u'target': [], u'time': []}}}","[-5, 5, -5]","[981, 260, 326]",-5.0,"[None, None, None]","[u'', -5, 10, 5, 5, -5, 5, -5, -10, 5, -5, 5, 10]",205697,29.0,-5.812682556850434e+18,mouselab-mdp,1
"[2229, 3508, 4076]","[u'right', u'right', u'up']",test,"[u'0', u'5', u'6', u'7']","{u'mouseover': {u'state': {u'target': [], u'time': []}, u'edge': {u'target': [], u'time': []}}, u'click': {u'state': {u'target': [], u'time': []}, u'edge': {u'target': [], u'time': []}}, u'mouseout': {u'state': {u'target': [], u'time': []}, u'edge': {u'target': [], u'time': []}}}","[-5, -10, 10]","[2223, 763, 48]",-5.0,"[None, None, None]","[u'', 5, 5, -5, 10, -5, -10, 10, 5, 10, 10, -10, -10]",277480,30.0,5.938094249628056e+18,mouselab-mdp,1
"[479, 1710, 2230]","[u'up', u'up', u'right']",test,"[u'0', u'1', u'2', u'3']","{u'mouseover': {u'state': {u'target': [], u'time': []}, u'edge': {u'target': [], u'time': []}}, u'click': {u'state': {u'target': [], u'time': []}, u'edge': {u'target': [], u'time': []}}, u'mouseout': {u'state': {u'target': [], u'time': []}, u'edge': {u'target': [], u'time': []}}}","[-10, -5, -10]","[473, 718, 2]",-25.0,"[None, None, None]","[u'', -10, -5, -10, 5, 10, 5, 10, -5, 10, -5, 10, 5]",281593,31.0,-8.549120811661888e+17,mouselab-mdp,1
"[396, 1779, 3218]","[u'up', u'up', u'left']",test,"[u'0', u'1', u'2', u'4']","{u'mouseover': {u'state': {u'target': [], u'time': []}, u'edge': {u'target': [], u'time': []}}, u'click': {u'state': {u'target': [], u'time': []}, u'edge': {u'target': [], u'time': []}}, u'mouseout': {u'state': {u'target': [], u'time': []}, u'edge': {u'target': [], u'time': []}}}","[10, 5, 5]","[391, 869, 923]",20.0,"[None, None, None]","[u'', 10, 5, 10, 5, 10, -5, 5, -10, -5, -10, -5, -10]",286896,32.0,-8.861839220469794e+18,mouselab-mdp,1
"[312, 1104, 1953]","[u'left', u'left', u'up']",test,"[u'0', u'9', u'10', u'11']","{u'mouseover': {u'state': {u'target': [], u'time': []}, u'edge': {u'target': [], u'time': []}}, u'click': {u'state': {u'target': [], u'time': []}, u'edge': {u'target': [], u'time': []}}, u'mouseout': {u'state': {u'target': [], u'time': []}, u'edge': {u'target': [], u'time': []}}}","[-5, 10, -5]","[307, 276, 324]",0.0,"[None, None, None]","[u'', 5, 10, -10, -10, -10, 10, 5, 5, -5, 10, -5, 10]",290890,33.0,-7.119666741695585e+18,mouselab-mdp,1
"[472, 1896, 2712]","[u'up', u'up', u'right']",test,"[u'0', u'1', u'2', u'3']","{u'mouseover': {u'state': {u'target': [], u'time': []}, u'edge': {u'target': [], u'time': []}}, u'click': {u'state': {u'target': [], u'time': []}, u'edge': {u'target': [], u'time': []}}, u'mouseout': {u'state': {u'target': [], u'time': []}, u'edge': {u'target': [], u'time': []}}}","[5, 10, 10]","[467, 912, 294]",25.0,"[None, None, None]","[u'', 5, 10, 10, -5, 5, 10, -5, 5, -10, -5, -10, 5]",295689,34.0,5.25598264187708e+18,mouselab-mdp,1
"[718, 1654, 2518]","[u'up', u'up', u'right']",test,"[u'0', u'1', u'2', u'3']","{u'mouseover': {u'state': {u'target': [], u'time': []}, u'edge': {u'target': [], u'time': []}}, u'click': {u'state': {u'target': [], u'time': []}, u'edge': {u'target': [], u'time': []}}, u'mouseout': {u'state': {u'target': [], u'time': []}, u'edge': {u'target': [], u'time': []}}}","[5, 10, -10]","[714, 423, 352]",5.0,"[None, None, None]","[u'', 5, 10, -10, 10, 10, 5, -5, 10, -10, -5, 10, -5]",300305,35.0,8.737010464064418e+18,mouselab-mdp,1
"[366, 1246, 2341]","[u'right', u'right', u'down']",test,"[u'0', u'5', u'6', u'8']","{u'mouseover': {u'state': {u'target': [], u'time': []}, u'edge': {u'target': [], u'time': []}}, u'click': {u'state': {u'target': [], u'time': []}, u'edge': {u'target': [], u'time': []}}, u'mouseout': {u'state': {u'target': [], u'time': []}, u'edge': {u'target': [], u'time': []}}}","[-5, 5, 10]","[360, 361, 572]",10.0,"[None, None, None]","[u'', -5, 5, -5, 10, -5, 5, -5, 10, 10, -10, 5, 10]",305008,36.0,-7.97546906179963e+18,mouselab-mdp,1
"[281, 1162, 1866]","[u'left', u'left', u'down']",test,"[u'0', u'9', u'10', u'12']","{u'mouseover': {u'state': {u'target': [], u'time': []}, u'edge': {u'target': [], u'time': []}}, u'click': {u'state': {u'target': [], u'time': []}, u'edge': {u'target': [], u'time': []}}, u'mouseout': {u'state': {u'target': [], u'time': []}, u'edge': {u'target': [], u'time': []}}}","[-10, -10, -5]","[276, 368, 189]",-25.0,"[None, None, None]","[u'', 5, -5, 10, -10, 5, -10, 5, -5, -10, -10, 5, -5]",309161,37.0,-6.260275842353281e+18,mouselab-mdp,1
"[270, 1110, 1871]","[u'left', u'left', u'up']",test,"[u'0', u'9', u'10', u'11']","{u'mouseover': {u'state': {u'target': [], u'time': []}, u'edge': {u'target': [], u'time': []}}, u'click': {u'state': {u'target': [], u'time': []}, u'edge': {u'target': [], u'time': []}}, u'mouseout': {u'state': {u'target': [], u'time': []}, u'edge': {u'target': [], u'time': []}}}","[-10, 5, -10]","[265, 321, 252]",-15.0,"[None, None, None]","[u'', 5, -5, -10, 10, -10, -10, -5, -5, -10, 5, -10, 5]",313148,38.0,2.252076120381865e+18,mouselab-mdp,1
"[129, 849, 1969]","[u'up', u'up', u'right']",test,"[u'0', u'1', u'2', u'3']","{u'mouseover': {u'state': {u'target': [], u'time': []}, u'edge': {u'target': [], u'time': []}}, u'click': {u'state': {u'target': [], u'time': []}, u'edge': {u'target': [], u'time': []}}, u'mouseout': {u'state': {u'target': [], u'time': []}, u'edge': {u'target': [], u'time': []}}}","[10, 10, -10]","[124, 213, 599]",10.0,"[None, None, None]","[u'', 10, 10, -10, -10, -10, 10, -10, -5, 10, 5, 5, -5]",317217,39.0,1.2413699960697694e+17,mouselab-mdp,1
"[659, 1395, 2042]","[u'up', u'up', u'left']",test,"[u'0', u'1', u'2', u'4']","{u'mouseover': {u'state': {u'target': [], u'time': []}, u'edge': {u'target': [], u'time': []}}, u'click': {u'state': {u'target': [], u'time': []}, u'edge': {u'target': [], u'time': []}}, u'mouseout': {u'state': {u'target': [], u'time': []}, u'edge': {u'target': [], u'time': []}}}","[5, 5, 10]","[654, 220, 106]",20.0,"[None, None, None]","[u'', 5, 5, -5, 10, 5, -10, -5, 10, 10, 5, 5, 5]",321728,40.0,5.627389738084794e+17,mouselab-mdp,1
"[1078, 2249, 2902]","[u'up', u'up', u'right']",test,"[u'0', u'1', u'2', u'3']","{u'mouseover': {u'state': {u'target': [], u'time': []}, u'edge': {u'target': [], u'time': []}}, u'click': {u'state': {u'target': [], u'time': []}, u'edge': {u'target': [], u'time': []}}, u'mouseout': {u'state': {u'target': [], u'time': []}, u'edge': {u'target': [], u'time': []}}}","[-5, 5, 5]","[1072, 656, 142]",5.0,"[None, None, None]","[u'', -5, 5, 5, -10, 10, 10, 10, -5, 5, -5, 5, 10]",326673,41.0,-2.6104954135648773e+18,mouselab-mdp,1
"[968, 1608, 2248]","[u'up', u'up', u'right']",test,"[u'0', u'1', u'2', u'3']","{u'mouseover': {u'state': {u'target': [], u'time': []}, u'edge': {u'target': [], u'time': []}}, u'click': {u'state': {u'target': [], u'time': []}, u'edge': {u'target': [], u'time': []}}, u'mouseout': {u'state': {u'target': [], u'time': []}, u'edge': {u'target': [], u'time': []}}}","[-5, 5, 10]","[963, 116, 123]",10.0,"[None, None, None]","[u'', -5, 5, 10, -10, 10, -10, 10, 5, -5, -10, 5, 10]",330841,42.0,4.754602433487655e+18,mouselab-mdp,1
"[5953, 6470, 7545]","[u'right', u'right', u'up']",test,"[u'0', u'5', u'6', u'7']","{u'mouseover': {u'state': {u'target': [], u'time': []}, u'edge': {u'target': [], u'time': []}}, u'click': {u'state': {u'target': [], u'time': []}, u'edge': {u'target': [], u'time': []}}, u'mouseout': {u'state': {u'target': [], u'time': []}, u'edge': {u'target': [], u'time': []}}}","[-10, 10, 10]","[5948, 1, 545]",10.0,"[None, None, None]","[u'', -5, 5, 5, 5, -10, 10, 10, 5, -10, 10, -10, -5]",340352,43.0,-8.511375057859465e+18,mouselab-mdp,1
"[1196, 1749, 2403]","[u'up', u'up', u'right']",test,"[u'0', u'1', u'2', u'3']","{u'mouseover': {u'state': {u'target': [], u'time': []}, u'edge': {u'target': [], u'time': []}}, u'click': {u'state': {u'target': [], u'time': []}, u'edge': {u'target': [], u'time': []}}, u'mouseout': {u'state': {u'target': [], u'time': []}, u'edge': {u'target': [], u'time': []}}}","[-5, 10, 10]","[1189, 41, 127]",15.0,"[None, None, None]","[u'', -5, 10, 10, 5, 10, 10, 10, 10, -10, 5, 5, 5]",344731,44.0,-6.980762109714071e+18,mouselab-mdp,1
"[1394, 1946, 2674]","[u'up', u'up', u'right']",test,"[u'0', u'1', u'2', u'3']","{u'mouseover': {u'state': {u'target': [], u'time': []}, u'edge': {u'target': [], u'time': []}}, u'click': {u'state': {u'target': [], u'time': []}, u'edge': {u'target': [], u'time': []}}, u'mouseout': {u'state': {u'target': [], u'time': []}, u'edge': {u'target': [], u'time': []}}}","[10, 5, 10]","[1389, 43, 202]",25.0,"[None, None, None]","[u'', 10, 5, 10, 5, 10, 10, -5, -10, 5, -5, -10, 5]",349177,45.0,4.3967390784059443e+18,mouselab-mdp,1
"[336, 1568, 2232]","[u'up', u'up', u'right']",test,"[u'0', u'1', u'2', u'3']","{u'mouseover': {u'state': {u'target': [], u'time': []}, u'edge': {u'target': [], u'time': []}}, u'click': {u'state': {u'target': [], u'time': []}, u'edge': {u'target': [], u'time': []}}, u'mouseout': {u'state': {u'target': [], u'time': []}, u'edge': {u'target': [], u'time': []}}}","[-5, 10, 5]","[333, 710, 146]",10.0,"[None, None, None]","[u'', -5, 10, 5, 10, 5, -5, 10, -10, 5, 10, 5, -10]",353226,46.0,7.308726088184663e+18,mouselab-mdp,1
"[245, 764, 1364]","[u'up', u'up', u'right']",test,"[u'0', u'1', u'2', u'3']","{u'mouseover': {u'state': {u'target': [], u'time': []}, u'edge': {u'target': [], u'time': []}}, u'click': {u'state': {u'target': [], u'time': []}, u'edge': {u'target': [], u'time': []}}, u'mouseout': {u'state': {u'target': [], u'time': []}, u'edge': {u'target': [], u'time': []}}}","[-10, 10, 10]","[240, 4, 70]",10.0,"[None, None, None]","[u'', -10, 10, 10, -10, -10, -5, -10, 10, -5, 10, 5, 10]",356400,47.0,-3.5316257003419013e+18,mouselab-mdp,1
"[43, 1011, 1612]","[u'up', u'up', u'right']",test,"[u'0', u'1', u'2', u'3']","{u'mouseover': {u'state': {u'target': [], u'time': []}, u'edge': {u'target': [], u'time': []}}, u'click': {u'state': {u'target': [], u'time': []}, u'edge': {u'target': [], u'time': []}}, u'mouseout': {u'state': {u'target': [], u'time': []}, u'edge': {u'target': [], u'time': []}}}","[-10, 5, -10]","[37, 437, 88]",-15.0,"[None, None, None]","[u'', -10, 5, -10, -5, 10, 5, 5, -10, -5, 5, 10, -10]",359849,48.0,3.5302878717738757e+18,mouselab-mdp,1
"[508, 1092, 1740]","[u'up', u'up', u'left']",test,"[u'0', u'1', u'2', u'4']","{u'mouseover': {u'state': {u'target': [], u'time': []}, u'edge': {u'target': [], u'time': []}}, u'click': {u'state': {u'target': [], u'time': []}, u'edge': {u'target': [], u'time': []}}, u'mouseout': {u'state': {u'target': [], u'time': []}, u'edge': {u'target': [], u'time': []}}}","[-10, 10, 5]","[503, 75, 131]",5.0,"[None, None, None]","[u'', -10, 10, -5, 5, 5, -10, -10, -10, -10, -5, -10, -10]",363818,49.0,6.612009546738605e+18,mouselab-mdp,1
"[20357, 21304, 22181]","[u'up', u'up', u'right']",train_basic,"[u'0', u'1', u'2', u'3']","{u'mouseover': {u'state': {u'target': [], u'time': []}, u'edge': {u'target': [], u'time': []}}, u'click': {u'state': {u'target': [], u'time': []}, u'edge': {u'target': [], u'time': []}}, u'mouseout': {u'state': {u'target': [], u'time': []}, u'edge': {u'target': [], u'time': []}}}","[5, 10, 10]","[20341, 412, 350]",25.0,"[None, None, None]","[u'', 5, 10, 10, -5, 5, 10, -5, 5, -10, -5, -10, 5]",25691,0.0,5.25598264187708e+18,mouselab-mdp,2
"[7407, 8313, 9042]","[u'left', u'left', u'up']",train_basic,"[u'0', u'9', u'10', u'11']","{u'mouseover': {u'state': {u'target': [], u'time': []}, u'edge': {u'target': [], u'time': []}}, u'click': {u'state': {u'target': [], u'time': []}, u'edge': {u'target': [], u'time': []}}, u'mouseout': {u'state': {u'target': [], u'time': []}, u'edge': {u'target': [], u'time': []}}}","[-5, 10, 5]","[7399, 381, 226]",10.0,"[None, None, None]","[u'', -10, -10, 10, -10, -5, -10, 10, 5, -5, 10, 5, -5]",36982,1.0,5.603840126336082e+18,mouselab-mdp,2
"[8274, 8946, 9663]","[u'up', u'up', u'left']",train_basic,"[u'0', u'1', u'2', u'4']","{u'mouseover': {u'state': {u'target': [], u'time': []}, u'edge': {u'target': [], u'time': []}}, u'click': {u'state': {u'target': [], u'time': []}, u'edge': {u'target': [], u'time': []}}, u'mouseout': {u'state': {u'target': [], u'time': []}, u'edge': {u'target': [], u'time': []}}}","[5, 5, 5]","[8263, 158, 207]",15.0,"[None, None, None]","[u'', 5, 5, -10, 5, -10, 10, 5, -10, 10, -10, 10, 5]",49284,2.0,7.494910043448008e+18,mouselab-mdp,2
"[4903, 5502, 6097]","[u'right', u'right', u'up']",train_basic,"[u'0', u'5', u'6', u'7']","{u'mouseover': {u'state': {u'target': [], u'time': []}, u'edge': {u'target': [], u'time': []}}, u'click': {u'state': {u'target': [], u'time': []}, u'edge': {u'target': [], u'time': []}}, u'mouseout': {u'state': {u'target': [], u'time': []}, u'edge': {u'target': [], u'time': []}}}","[10, -10, 10]","[4888, 76, 71]",10.0,"[None, None, None]","[u'', 5, -5, -5, -10, 10, -10, 10, -10, 5, -10, 10, -10]",57615,3.0,-5.537817334537116e+18,mouselab-mdp,2
"[9900, 10412, 11234]","[u'left', u'left', u'up']",train_basic,"[u'0', u'9', u'10', u'11']","{u'mouseover': {u'state': {u'target': [], u'time': []}, u'edge': {u'target': [], u'time': []}}, u'click': {u'state': {u'target': [], u'time': []}, u'edge': {u'target': [], u'time': []}}, u'mouseout': {u'state': {u'target': [], u'time': []}, u'edge': {u'target': [], u'time': []}}}","[5, -5, 10]","[9868, 6, 296]",10.0,"[None, None, None]","[u'', -10, -5, -5, 10, 10, -5, 5, -10, 5, -5, 10, 5]",71139,4.0,-4.641247981390103e+18,mouselab-mdp,2
"[4179, 4703, 5420]","[u'left', u'left', u'down']",train_basic,"[u'0', u'9', u'10', u'12']","{u'mouseover': {u'state': {u'target': [], u'time': []}, u'edge': {u'target': [], u'time': []}}, u'click': {u'state': {u'target': [], u'time': []}, u'edge': {u'target': [], u'time': []}}, u'mouseout': {u'state': {u'target': [], u'time': []}, u'edge': {u'target': [], u'time': []}}}","[5, -5, 5]","[4171, 12, 193]",5.0,"[None, None, None]","[u'', -10, -5, -5, 5, -10, -10, -10, -10, 5, -5, -5, 5]",78728,5.0,-9.136662483728007e+18,mouselab-mdp,2
"[6025, 6700, 7258]","[u'left', u'left', u'down']",train_basic,"[u'0', u'9', u'10', u'12']","{u'mouseover': {u'state': {u'target': [], u'time': []}, u'edge': {u'target': [], u'time': []}}, u'click': {u'state': {u'target': [], u'time': []}, u'edge': {u'target': [], u'time': []}}, u'mouseout': {u'state': {u'target': [], u'time': []}, u'edge': {u'target': [], u'time': []}}}","[-5, 10, 10]","[6016, 144, 43]",15.0,"[None, None, None]","[u'', -10, 10, 10, -10, -10, -5, -10, 10, -5, 10, 5, 10]",88107,6.0,-3.5316257003419013e+18,mouselab-mdp,2
"[1890, 2408, 3019]","[u'up', u'up', u'left']",train_basic,"[u'0', u'1', u'2', u'4']","{u'mouseover': {u'state': {u'target': [], u'time': []}, u'edge': {u'target': [], u'time': []}}, u'click': {u'state': {u'target': [], u'time': []}, u'edge': {u'target': [], u'time': []}}, u'mouseout': {u'state': {u'target': [], u'time': []}, u'edge': {u'target': [], u'time': []}}}","[10, 10, 10]","[1884, 7, 88]",30.0,"[None, None, None]","[u'', 10, 10, 5, 10, -10, 10, -10, -10, -5, -10, 5, -10]",93283,7.0,4.981813421836143e+18,mouselab-mdp,2
"[8118, 9198, 9946]","[u'up', u'up', u'right']",train_basic,"[u'0', u'1', u'2', u'3']","{u'mouseover': {u'state': {u'target': [], u'time': []}, u'edge': {u'target': [], u'time': []}}, u'click': {u'state': {u'target': [], u'time': []}, u'edge': {u'target': [], u'time': []}}, u'mouseout': {u'state': {u'target': [], u'time': []}, u'edge': {u'target': [], u'time': []}}}","[-5, -5, 10]","[8108, 579, 242]",0.0,"[None, None, None]","[u'', -5, -5, 10, 5, -5, -5, -10, -5, -10, -5, 5, 10]",105625,8.0,-2.317078987107653e+18,mouselab-mdp,2
"[6115, 7129, 7896]","[u'up', u'up', u'left']",train_basic,"[u'0', u'1', u'2', u'4']","{u'mouseover': {u'state': {u'target': [], u'time': []}, u'edge': {u'target': [], u'time': []}}, u'click': {u'state': {u'target': [], u'time': []}, u'edge': {u'target': [], u'time': []}}, u'mouseout': {u'state': {u'target': [], u'time': []}, u'edge': {u'target': [], u'time': []}}}","[-5, 5, 10]","[6104, 490, 256]",10.0,"[None, None, None]","[u'', -5, 5, -5, 10, -5, 5, -5, 10, 10, -10, 5, 10]",116117,9.0,-7.97546906179963e+18,mouselab-mdp,2
"[5416, 6196, 6869]","[u'up', u'up', u'right']",train_hidden,"[u'0', u'1', u'2', u'3']","{u'mouseover': {u'state': {u'target': [], u'time': []}, u'edge': {u'target': [], u'time': []}}, u'click': {u'state': {u'target': [], u'time': []}, u'edge': {u'target': [], u'time': []}}, u'mouseout': {u'state': {u'target': [], u'time': []}, u'edge': {u'target': [], u'time': []}}}","[-5, 10, 5]","[5408, 256, 169]",10.0,"[None, None, None]","[u'', -5, 10, 5, 5, -5, 5, -5, -10, 5, -5, 5, 10]",127369,10.0,-5.812682556850434e+18,mouselab-mdp,2
"[1035, 1706, 2349]","[u'right', u'right', u'down']",train_hidden,"[u'0', u'5', u'6', u'8']","{u'mouseover': {u'state': {u'target': [], u'time': []}, u'edge': {u'target': [], u'time': []}}, u'click': {u'state': {u'target': [], u'time': []}, u'edge': {u'target': [], u'time': []}}, u'mouseout': {u'state': {u'target': [], u'time': []}, u'edge': {u'target': [], u'time': []}}}","[10, 10, 5]","[1024, 163, 139]",25.0,"[None, None, None]","[u'', -5, -5, 10, -10, 10, 10, 10, 5, 5, -5, -10, -5]",132130,11.0,-6.412333170858073e+18,mouselab-mdp,2
"[632, 1193, 2014]","[u'left', u'left', u'up']",train_hidden,"[u'0', u'9', u'10', u'11']","{u'mouseover': {u'state': {u'target': [], u'time': []}, u'edge': {u'target': [], u'time': []}}, u'click': {u'state': {u'target': [], u'time': []}, u'edge': {u'target': [], u'time': []}}, u'mouseout': {u'state': {u'target': [], u'time': []}, u'edge': {u'target': [], u'time': []}}}","[5, -10, 5]","[623, 54, 306]",0.0,"[None, None, None]","[u'', -5, -5, 10, -5, 10, -10, 10, -10, 5, -10, 5, -10]",136413,12.0,3.9686635761738235e+18,mouselab-mdp,2
"[1766, 2799, 3577]","[u'up', u'up', u'left']",train_hidden,"[u'0', u'1', u'2', u'4']","{u'mouseover': {u'state': {u'target': [], u'time': []}, u'edge': {u'target': [], u'time': []}}, u'click': {u'state': {u'target': [], u'time': []}, u'edge': {u'target': [], u'time': []}}, u'mouseout': {u'state': {u'target': [], u'time': []}, u'edge': {u'target': [], u'time': []}}}","[-5, 10, 10]","[1759, 519, 263]",15.0,"[None, None, None]","[u'', -5, 10, 5, 10, 5, 5, -5, 5, 10, 10, 10, 5]",142329,13.0,-6.877572132778754e+18,mouselab-mdp,2
"[769, 1447, 2134]","[u'right', u'right', u'down']",train_hidden,"[u'0', u'5', u'6', u'8']","{u'mouseover': {u'state': {u'target': [], u'time': []}, u'edge': {u'target': [], u'time': []}}, u'click': {u'state': {u'target': [], u'time': []}, u'edge': {u'target': [], u'time': []}}, u'mouseout': {u'state': {u'target': [], u'time': []}, u'edge': {u'target': [], u'time': []}}}","[-10, 10, -5]","[761, 176, 179]",-5.0,"[None, None, None]","[u'', 10, -5, -10, 10, -10, 10, 10, -5, 5, 5, 5, 10]",146994,14.0,-6.044130621866826e+18,mouselab-mdp,2
"[11717, 12359, 13007]","[u'up', u'up', u'right']",train_inspector,"[u'0', u'1', u'2', u'3']","{u'mouseover': {u'state': {u'target': [], u'time': []}, u'edge': {u'target': [], u'time': []}}, u'click': {u'state': {u'target': [u'1', u'9', u'5'], u'time': [8216, 9621, 10635]}, u'edge': {u'target': [], u'time': []}}, u'mouseout': {u'state': {u'target': [], u'time': []}, u'edge': {u'target': [], u'time': []}}}","[-5, 5, 5]","[11709, 134, 133]",5.0,"[None, None, None]","[u'', -5, 5, 5, 5, -10, 10, 10, 5, -10, 10, -10, -5]",164325,15.0,-8.511375057859465e+18,mouselab-mdp,2
"[3540, 4119, 4926]","[u'right', u'right', u'up']",train_inspector,"[u'0', u'5', u'6', u'7']","{u'mouseover': {u'state': {u'target': [], u'time': []}, u'edge': {u'target': [], u'time': []}}, u'click': {u'state': {u'target': [u'9', u'1', u'5'], u'time': [1153, 1962, 2954]}, u'edge': {u'target': [], u'time': []}}, u'mouseout': {u'state': {u'target': [], u'time': []}, u'edge': {u'target': [], u'time': []}}}","[10, 5, -10]","[3531, 69, 292]",5.0,"[None, None, None]","[u'', 5, -10, -5, 10, 10, 5, -10, 5, 5, -5, -5, 5]",171850,16.0,8.034619116489217e+18,mouselab-mdp,2
"[3232, 3846, 4709]","[u'right', u'right', u'down']",train_inspector,"[u'0', u'5', u'6', u'8']","{u'mouseover': {u'state': {u'target': [], u'time': []}, u'edge': {u'target': [], u'time': []}}, u'click': {u'state': {u'target': [u'5', u'1', u'9'], u'time': [712, 1590, 2408]}, u'edge': {u'target': [], u'time': []}}, u'mouseout': {u'state': {u'target': [], u'time': []}, u'edge': {u'target': [], u'time': []}}}","[10, 5, -10]","[3223, 100, 345]",5.0,"[None, None, None]","[u'', -10, 5, 5, -5, 10, 5, -10, -10, -10, -5, -10, 5]",179141,17.0,6.62653966049298e+17,mouselab-mdp,2
"[4237, 4830, 5473]","[u'right', u'right', u'up']",train_inspector,"[u'0', u'5', u'6', u'7']","{u'mouseover': {u'state': {u'target': [], u'time': []}, u'edge': {u'target': [], u'time': []}}, u'click': {u'state': {u'target': [u'9', u'1', u'5'], u'time': [1213, 2165, 3085]}, u'edge': {u'target': [], u'time': []}}, u'mouseout': {u'state': {u'target': [], u'time': []}, u'edge': {u'target': [], u'time': []}}}","[-10, -5, 5]","[4229, 81, 137]",-10.0,"[None, None, None]","[u'', -5, 10, 5, -5, -10, -5, 5, -5, -5, -5, 10, -5]",187073,18.0,6.150233340115579e+18,mouselab-mdp,2
"[5085, 5724, 6570]","[u'right', u'right', u'down']",train_inspector,"[u'0', u'5', u'6', u'8']","{u'mouseover': {u'state': {u'target': [], u'time': []}, u'edge': {u'target': [], u'time': []}}, u'click': {u'state': {u'target': [u'1', u'9', u'5'], u'time': [1531, 2584, 3775]}, u'edge': {u'target': [], u'time': []}}, u'mouseout': {u'state': {u'target': [], u'time': []}, u'edge': {u'target': [], u'time': []}}}","[5, -5, -10]","[5074, 133, 331]",-10.0,"[None, None, None]","[u'', -5, -10, 5, 5, 5, -5, 5, -10, -5, -5, -5, -10]",196283,19.0,-7.611027172769307e+18,mouselab-mdp,2
"[3581, 4192, 4899]","[u'up', u'up', u'right']",train_inspect_cost,"[u'0', u'1', u'2', u'3']","{u'mouseover': {u'state': {u'target': [], u'time': []}, u'edge': {u'target': [], u'time': []}}, u'click': {u'state': {u'target': [], u'time': []}, u'edge': {u'target': [], u'time': []}}, u'mouseout': {u'state': {u'target': [], u'time': []}, u'edge': {u'target': [], u'time': []}}}","[10, 5, 10]","[3572, 86, 192]",25.0,"[None, None, None]","[u'', 10, 5, 10, -5, 10, -5, -10, 10, 5, -10, 10, 5]",205417,20.0,3.6441571471145324e+18,mouselab-mdp,2
"[5365, 5990, 6799]","[u'right', u'right', u'up']",train_inspect_cost,"[u'0', u'5', u'6', u'7']","{u'mouseover': {u'state': {u'target': [], u'time': []}, u'edge': {u'target': [], u'time': []}}, u'click': {u'state': {u'target': [u'9', u'1', u'5'], u'time': [1205, 2645, 4465]}, u'edge': {u'target': [], u'time': []}}, u'mouseout': {u'state': {u'target': [], u'time': []}, u'edge': {u'target': [], u'time': []}}}","[10, 5, -10]","[5357, 111, 294]",2.0,"[None, None, None]","[u'', -5, 10, 5, -10, 10, 5, -10, -5, 5, 10, -10, 10]",214887,21.0,-9.148803387183103e+18,mouselab-mdp,2
"[1392, 1991, 2698]","[u'right', u'right', u'down']",train_inspect_cost,"[u'0', u'5', u'6', u'8']","{u'mouseover': {u'state': {u'target': [], u'time': []}, u'edge': {u'target': [], u'time': []}}, u'click': {u'state': {u'target': [], u'time': []}, u'edge': {u'target': [], u'time': []}}, u'mouseout': {u'state': {u'target': [], u'time': []}, u'edge': {u'target': [], u'time': []}}}","[5, -10, -5]","[1384, 85, 208]",-10.0,"[None, None, None]","[u'', 5, -5, 10, -10, 5, -10, 5, -5, -10, -10, 5, -5]",220032,22.0,-6.260275842353281e+18,mouselab-mdp,2
"[3737, 4558, 5536]","[u'right', u'right', u'up']",train_inspect_cost,"[u'0', u'5', u'6', u'7']","{u'mouseover': {u'state': {u'target': [], u'time': []}, u'edge': {u'target': [], u'time': []}}, u'click': {u'state': {u'target': [u'9', u'1'], u'time': [942, 1884]}, u'edge': {u'target': [], u'time': []}}, u'mouseout': {u'state': {u'target': [], u'time': []}, u'edge': {u'target': [], u'time': []}}}","[-10, -10, -5]","[3726, 313, 474]",-27.0,"[None, None, None]","[u'', -10, 5, -5, 10, -10, -10, -5, 10, -10, 10, -5, -10]",227887,23.0,-6.477964297241529e+18,mouselab-mdp,2
"[1639, 2187, 2711]","[u'right', u'right', u'down']",train_inspect_cost,"[u'0', u'5', u'6', u'8']","{u'mouseover': {u'state': {u'target': [], u'time': []}, u'edge': {u'target': [], u'time': []}}, u'click': {u'state': {u'target': [], u'time': []}, u'edge': {u'target': [], u'time': []}}, u'mouseout': {u'state': {u'target': [], u'time': []}, u'edge': {u'target': [], u'time': []}}}","[-10, -10, -5]","[1631, 34, 24]",-25.0,"[None, None, None]","[u'', -5, 5, -5, -5, -10, -10, 10, -5, 10, -10, -5, 5]",232969,24.0,8.077601249506434e+18,mouselab-mdp,2
"[9870, 10844, 11446]","[u'up', u'up', u'left']",train_final,"[u'0', u'1', u'2', u'4']","{u'mouseover': {u'state': {u'target': [], u'time': []}, u'edge': {u'target': [], u'time': []}}, u'click': {u'state': {u'target': [], u'time': []}, u'edge': {u'target': [], u'time': []}}, u'mouseout': {u'state': {u'target': [], u'time': []}, u'edge': {u'target': [], u'time': []}}}","[5, -5, 10]","[9863, 454, 86]",10.0,"[None, None, None]","[u'', 5, -5, -10, 10, -10, -10, -5, -5, -10, 5, -10, 5]",248310,25.0,2.252076120381865e+18,mouselab-mdp,2
"[501, 1442, 1991]","[u'right', u'right', u'down']",train_final,"[u'0', u'5', u'6', u'8']","{u'mouseover': {u'state': {u'target': [], u'time': []}, u'edge': {u'target': [], u'time': []}}, u'click': {u'state': {u'target': [], u'time': []}, u'edge': {u'target': [], u'time': []}}, u'mouseout': {u'state': {u'target': [], u'time': []}, u'edge': {u'target': [], u'time': []}}}","[5, 5, 5]","[494, 432, 28]",15.0,"[None, None, None]","[u'', 10, -10, 5, 5, 5, 5, -5, 5, 10, -5, 10, -10]",252333,26.0,-6.577176273229301e+18,mouselab-mdp,2
"[437, 1000, 1583]","[u'up', u'up', u'left']",train_final,"[u'0', u'1', u'2', u'4']","{u'mouseover': {u'state': {u'target': [], u'time': []}, u'edge': {u'target': [], u'time': []}}, u'click': {u'state': {u'target': [], u'time': []}, u'edge': {u'target': [], u'time': []}}, u'mouseout': {u'state': {u'target': [], u'time': []}, u'edge': {u'target': [], u'time': []}}}","[-10, -5, 10]","[427, 56, 70]",-5.0,"[None, None, None]","[u'', -10, -5, -5, 10, 10, 10, 5, -5, -5, 10, 5, 10]",255931,27.0,-2.464562972607473e+18,mouselab-mdp,2
"[25, 884, 1433]","[u'left', u'left', u'down']",train_final,"[u'0', u'9', u'10', u'12']","{u'mouseover': {u'state': {u'target': [], u'time': []}, u'edge': {u'target': [], u'time': []}}, u'click': {u'state': {u'target': [], u'time': []}, u'edge': {u'target': [], u'time': []}}, u'mouseout': {u'state': {u'target': [], u'time': []}, u'edge': {u'target': [], u'time': []}}}","[-10, -5, 10]","[15, 145, 26]",-5.0,"[None, None, None]","[u'', -10, -5, 10, -10, -5, -10, 10, 10, -10, -5, -10, 10]",259385,28.0,-7.342034422792319e+18,mouselab-mdp,2
"[183, 815, 1344]","[u'left', u'left', u'up']",train_final,"[u'0', u'9', u'10', u'11']","{u'mouseover': {u'state': {u'target': [], u'time': []}, u'edge': {u'target': [], u'time': []}}, u'click': {u'state': {u'target': [], u'time': []}, u'edge': {u'target': [], u'time': []}}, u'mouseout': {u'state': {u'target': [], u'time': []}, u'edge': {u'target': [], u'time': []}}}","[10, 10, -10]","[177, 118, 18]",10.0,"[None, None, None]","[u'', 5, 5, -5, 10, -5, -10, 10, 5, 10, 10, -10, -10]",262986,29.0,5.938094249628056e+18,mouselab-mdp,2
"[5665, 6471, 7457]","[u'up', u'up', u'right']",test,"[u'0', u'1', u'2', u'3']","{u'mouseover': {u'state': {u'target': [], u'time': []}, u'edge': {u'target': [], u'time': []}}, u'click': {u'state': {u'target': [], u'time': []}, u'edge': {u'target': [], u'time': []}}, u'mouseout': {u'state': {u'target': [], u'time': []}, u'edge': {u'target': [], u'time': []}}}","[-10, 10, 10]","[5651, 294, 474]",10.0,"[None, None, None]","[u'', -10, 10, 10, -5, -5, 10, -5, -10, 10, 10, -5, 10]",1094656,30.0,-4.1003180650031995e+18,mouselab-mdp,2
"[4889, 5534, 6960]","[u'up', u'up', u'right']",test,"[u'0', u'1', u'2', u'3']","{u'mouseover': {u'state': {u'target': [], u'time': []}, u'edge': {u'target': [], u'time': []}}, u'click': {u'state': {u'target': [u'9', u'1'], u'time': [1998, 2795]}, u'edge': {u'target': [], u'time': []}}, u'mouseout': {u'state': {u'target': [], u'time': []}, u'edge': {u'target': [], u'time': []}}}","[10, -5, -10]","[4882, 140, 916]",-7.0,"[None, None, None]","[u'', 10, -5, -10, -5, 5, 5, 10, -10, -10, 5, 10, -10]",1104176,31.0,-8.642469369171842e+18,mouselab-mdp,2
"[1522, 2400, 3137]","[u'right', u'right', u'down']",test,"[u'0', u'5', u'6', u'8']","{u'mouseover': {u'state': {u'target': [], u'time': []}, u'edge': {u'target': [], u'time': []}}, u'click': {u'state': {u'target': [], u'time': []}, u'edge': {u'target': [], u'time': []}}, u'mouseout': {u'state': {u'target': [], u'time': []}, u'edge': {u'target': [], u'time': []}}}","[-10, 10, -5]","[1513, 368, 213]",-5.0,"[None, None, None]","[u'', 10, -5, -10, -10, -10, 10, -10, -5, 10, -5, 10, -5]",1109663,32.0,9.076059563084848e+18,mouselab-mdp,2
"[479, 997, 1654]","[u'left', u'left', u'up']",test,"[u'0', u'9', u'10', u'11']","{u'mouseover': {u'state': {u'target': [], u'time': []}, u'edge': {u'target': [], u'time': []}}, u'click': {u'state': {u'target': [], u'time': []}, u'edge': {u'target': [], u'time': []}}, u'mouseout': {u'state': {u'target': [], u'time': []}, u'edge': {u'target': [], u'time': []}}}","[10, 5, -10]","[466, 9, 135]",5.0,"[None, None, None]","[u'', 10, 5, -10, 5, -5, 5, 10, -5, 10, 5, -10, 10]",1113449,33.0,-6.457953215426968e+18,mouselab-mdp,2
"[2114795, 2115651, 2116448]","[u'right', u'right', u'up']",test,"[u'0', u'5', u'6', u'7']","{u'mouseover': {u'state': {u'target': [], u'time': []}, u'edge': {u'target': [], u'time': []}}, u'click': {u'state': {u'target': [], u'time': []}, u'edge': {u'target': [], u'time': []}}, u'mouseout': {u'state': {u'target': [], u'time': []}, u'edge': {u'target': [], u'time': []}}}","[-5, -5, -5]","[2114788, 345, 294]",-15.0,"[None, None, None]","[u'', 10, -5, 5, -5, -5, -5, -5, -5, 5, -5, 10, 5]",3232048,34.0,1.3034732393768448e+18,mouselab-mdp,2
"[664, 1179, 1726]","[u'left', u'left', u'up']",test,"[u'0', u'9', u'10', u'11']","{u'mouseover': {u'state': {u'target': [], u'time': []}, u'edge': {u'target': [], u'time': []}}, u'click': {u'state': {u'target': [], u'time': []}, u'edge': {u'target': [], u'time': []}}, u'mouseout': {u'state': {u'target': [], u'time': []}, u'edge': {u'target': [], u'time': []}}}","[5, -10, 10]","[653, 6, 7]",5.0,"[None, None, None]","[u'', -10, -5, -5, 5, -5, 5, 5, 5, 5, -10, 10, 10]",3236562,35.0,5.514906028833953e+18,mouselab-mdp,2
"[218, 772, 1414]","[u'up', u'up', u'right']",test,"[u'0', u'1', u'2', u'3']","{u'mouseover': {u'state': {u'target': [], u'time': []}, u'edge': {u'target': [], u'time': []}}, u'click': {u'state': {u'target': [], u'time': []}, u'edge': {u'target': [], u'time': []}}, u'mouseout': {u'state': {u'target': [], u'time': []}, u'edge': {u'target': [], u'time': []}}}","[10, -10, 10]","[211, 34, 132]",10.0,"[None, None, None]","[u'', 10, -10, 10, 5, -5, -5, 5, -5, 10, -5, 10, 10]",3240162,36.0,-2.528293413986772e+18,mouselab-mdp,2
"[445, 963, 1543]","[u'up', u'up', u'left']",test,"[u'0', u'1', u'2', u'4']","{u'mouseover': {u'state': {u'target': [], u'time': []}, u'edge': {u'target': [], u'time': []}}, u'click': {u'state': {u'target': [], u'time': []}, u'edge': {u'target': [], u'time': []}}, u'mouseout': {u'state': {u'target': [], u'time': []}, u'edge': {u'target': [], u'time': []}}}","[5, 5, 10]","[436, 8, 57]",20.0,"[None, None, None]","[u'', 5, 5, 5, 10, 5, -5, -5, -10, -5, -10, 10, -10]",3243733,37.0,5.189627300054367e+18,mouselab-mdp,2
"[114, 706, 1287]","[u'up', u'up', u'left']",test,"[u'0', u'1', u'2', u'4']","{u'mouseover': {u'state': {u'target': [], u'time': []}, u'edge': {u'target': [], u'time': []}}, u'click': {u'state': {u'target': [], u'time': []}, u'edge': {u'target': [], u'time': []}}, u'mouseout': {u'state': {u'target': [], u'time': []}, u'edge': {u'target': [], u'time': []}}}","[5, -10, 10]","[105, 34, 81]",5.0,"[None, None, None]","[u'', 5, -10, 5, 10, 10, 5, 10, 10, 5, -10, -10, -10]",3247015,38.0,2.8266579347923113e+18,mouselab-mdp,2
"[373, 883, 2043]","[u'up', u'up', u'left']",test,"[u'0', u'1', u'2', u'4']","{u'mouseover': {u'state': {u'target': [], u'time': []}, u'edge': {u'target': [], u'time': []}}, u'click': {u'state': {u'target': [], u'time': []}, u'edge': {u'target': [], u'time': []}}, u'mouseout': {u'state': {u'target': [], u'time': []}, u'edge': {u'target': [], u'time': []}}}","[10, 5, 5]","[366, 5, 569]",20.0,"[None, None, None]","[u'', 10, 5, 10, 5, 10, -5, 5, -10, -5, -10, -5, -10]",3251106,39.0,-8.861839220469794e+18,mouselab-mdp,2
"[69, 695, 1242]","[u'up', u'up', u'left']",test,"[u'0', u'1', u'2', u'4']","{u'mouseover': {u'state': {u'target': [], u'time': []}, u'edge': {u'target': [], u'time': []}}, u'click': {u'state': {u'target': [], u'time': []}, u'edge': {u'target': [], u'time': []}}, u'mouseout': {u'state': {u'target': [], u'time': []}, u'edge': {u'target': [], u'time': []}}}","[-10, -5, 5]","[62, 30, 43]",-10.0,"[None, None, None]","[u'', -10, -5, -10, 5, 10, 5, 10, -5, 10, -5, 10, 5]",3254357,40.0,-8.549120811661888e+17,mouselab-mdp,2
"[133, 658, 1227]","[u'up', u'up', u'left']",test,"[u'0', u'1', u'2', u'4']","{u'mouseover': {u'state': {u'target': [], u'time': []}, u'edge': {u'target': [], u'time': []}}, u'click': {u'state': {u'target': [], u'time': []}, u'edge': {u'target': [], u'time': []}}, u'mouseout': {u'state': {u'target': [], u'time': []}, u'edge': {u'target': [], u'time': []}}}","[5, 10, 10]","[123, 23, 59]",25.0,"[None, None, None]","[u'', 5, 10, -10, 10, 10, 5, -5, 10, -10, -5, 10, -5]",3257676,41.0,8.737010464064418e+18,mouselab-mdp,2
"[237, 756, 1439]","[u'up', u'up', u'left']",test,"[u'0', u'1', u'2', u'4']","{u'mouseover': {u'state': {u'target': [], u'time': []}, u'edge': {u'target': [], u'time': []}}, u'click': {u'state': {u'target': [], u'time': []}, u'edge': {u'target': [], u'time': []}}, u'mouseout': {u'state': {u'target': [], u'time': []}, u'edge': {u'target': [], u'time': []}}}","[5, 5, 5]","[227, 5, 155]",15.0,"[None, None, None]","[u'', 5, 5, 5, 5, -10, -10, 5, 10, -10, -5, -5, -5]",3261065,42.0,-5.299628366905943e+18,mouselab-mdp,2
"[484, 1008, 1573]","[u'up', u'up', u'left']",test,"[u'0', u'1', u'2', u'4']","{u'mouseover': {u'state': {u'target': [], u'time': []}, u'edge': {u'target': [], u'time': []}}, u'click': {u'state': {u'target': [], u'time': []}, u'edge': {u'target': [], u'time': []}}, u'mouseout': {u'state': {u'target': [], u'time': []}, u'edge': {u'target': [], u'time': []}}}","[5, -5, -5]","[474, 24, 55]",-5.0,"[None, None, None]","[u'', 5, -5, -5, -5, -10, 5, 5, -10, 10, 10, 10, 10]",3264616,43.0,6.349377679140465e+18,mouselab-mdp,2
"[226, 753, 1314]","[u'up', u'up', u'left']",test,"[u'0', u'1', u'2', u'4']","{u'mouseover': {u'state': {u'target': [], u'time': []}, u'edge': {u'target': [], u'time': []}}, u'click': {u'state': {u'target': [], u'time': []}, u'edge': {u'target': [], u'time': []}}, u'mouseout': {u'state': {u'target': [], u'time': []}, u'edge': {u'target': [], u'time': []}}}","[-5, 10, -5]","[220, 13, 39]",0.0,"[None, None, None]","[u'', -5, 10, -5, -5, -5, 5, -10, 5, -10, -10, 10, -10]",3267998,44.0,3.932980794305715e+18,mouselab-mdp,2
"[92, 733, 1345]","[u'up', u'up', u'left']",test,"[u'0', u'1', u'2', u'4']","{u'mouseover': {u'state': {u'target': [], u'time': []}, u'edge': {u'target': [], u'time': []}}, u'click': {u'state': {u'target': [], u'time': []}, u'edge': {u'target': [], u'time': []}}, u'mouseout': {u'state': {u'target': [], u'time': []}, u'edge': {u'target': [], u'time': []}}}","[-5, -10, -5]","[82, 69, 95]",-20.0,"[None, None, None]","[u'', -5, -10, -10, -5, 5, -10, -10, 10, -5, 5, -10, -10]",3271206,45.0,1.960338415622663e+18,mouselab-mdp,2
"[32, 698, 1284]","[u'up', u'up', u'left']",test,"[u'0', u'1', u'2', u'4']","{u'mouseover': {u'state': {u'target': [], u'time': []}, u'edge': {u'target': [], u'time': []}}, u'click': {u'state': {u'target': [], u'time': []}, u'edge': {u'target': [], u'time': []}}, u'mouseout': {u'state': {u'target': [], u'time': []}, u'edge': {u'target': [], u'time': []}}}","[10, 10, -10]","[23, 35, 81]",10.0,"[None, None, None]","[u'', 10, 10, -10, -10, -10, 10, -10, -5, 10, 5, 5, -5]",3274441,46.0,1.2413699960697694e+17,mouselab-mdp,2
"[51, 771, 1321]","[u'up', u'up', u'left']",test,"[u'0', u'1', u'2', u'4']","{u'mouseover': {u'state': {u'target': [], u'time': []}, u'edge': {u'target': [], u'time': []}}, u'click': {u'state': {u'target': [], u'time': []}, u'edge': {u'target': [], u'time': []}}, u'mouseout': {u'state': {u'target': [], u'time': []}, u'edge': {u'target': [], u'time': []}}}","[10, 10, 5]","[41, 85, 33]",25.0,"[None, None, None]","[u'', 10, 10, 5, 5, -10, -5, -5, -10, 5, -5, 10, 10]",3277688,47.0,8.086241799233455e+18,mouselab-mdp,2
"[138, 674, 1243]","[u'up', u'up', u'left']",test,"[u'0', u'1', u'2', u'4']","{u'mouseover': {u'state': {u'target': [], u'time': []}, u'edge': {u'target': [], u'time': []}}, u'click': {u'state': {u'target': [], u'time': []}, u'edge': {u'target': [], u'time': []}}, u'mouseout': {u'state': {u'target': [], u'time': []}, u'edge': {u'target': [], u'time': []}}}","[-5, 5, 5]","[129, 10, 47]",5.0,"[None, None, None]","[u'', -5, 5, -5, 5, -10, 10, -5, -10, -10, -10, 5, 5]",3280910,48.0,8.808609661304966e+18,mouselab-mdp,2
"[62, 640, 1233]","[u'up', u'up', u'left']",test,"[u'0', u'1', u'2', u'4']","{u'mouseover': {u'state': {u'target': [], u'time': []}, u'edge': {u'target': [], u'time': []}}, u'click': {u'state': {u'target': [], u'time': []}, u'edge': {u'target': [], u'time': []}}, u'mouseout': {u'state': {u'target': [], u'time': []}, u'edge': {u'target': [], u'time': []}}}","[-5, -10, 5]","[55, 6, 65]",-10.0,"[None, None, None]","[u'', -5, -10, -10, 5, -10, -5, -5, -10, 5, -10, 5, 5]",3284051,49.0,7.710656893126775e+18,mouselab-mdp,2
"[23944, 27125, 28065]","[u'right', u'right', u'up']",train_basic,"[u'0', u'5', u'6', u'7']","{u'mouseover': {u'state': {u'target': [], u'time': []}, u'edge': {u'target': [], u'time': []}}, u'click': {u'state': {u'target': [], u'time': []}, u'edge': {u'target': [], u'time': []}}, u'mouseout': {u'state': {u'target': [], u'time': []}, u'edge': {u'target': [], u'time': []}}}","[10, 5, 5]","[23938, 2672, 430]",20.0,"[None, None, None]","[u'', -10, 5, -10, -5, 10, 5, 5, -10, -5, 5, 10, -10]",31444,0.0,3.5302878717738757e+18,mouselab-mdp,3
"[11589, 12804, 13896]","[u'left', u'left', u'down']",train_basic,"[u'0', u'9', u'10', u'12']","{u'mouseover': {u'state': {u'target': [], u'time': []}, u'edge': {u'target': [], u'time': []}}, u'click': {u'state': {u'target': [], u'time': []}, u'edge': {u'target': [], u'time': []}}, u'mouseout': {u'state': {u'target': [], u'time': []}, u'edge': {u'target': [], u'time': []}}}","[5, 5, 10]","[11586, 709, 583]",20.0,"[None, None, None]","[u'', 10, -5, -10, 10, -10, 10, 10, -5, 5, 5, 5, 10]",51793,1.0,-6.044130621866826e+18,mouselab-mdp,3
"[3046, 4453, 5433]","[u'right', u'right', u'up']",train_basic,"[u'0', u'5', u'6', u'7']","{u'mouseover': {u'state': {u'target': [], u'time': []}, u'edge': {u'target': [], u'time': []}}, u'click': {u'state': {u'target': [], u'time': []}, u'edge': {u'target': [], u'time': []}}, u'mouseout': {u'state': {u'target': [], u'time': []}, u'edge': {u'target': [], u'time': []}}}","[10, 10, 10]","[3044, 899, 475]",30.0,"[None, None, None]","[u'', -5, 5, 5, -10, 10, 10, 10, -5, 5, -5, 5, 10]",66565,2.0,-2.6104954135648773e+18,mouselab-mdp,3
"[5073, 6267, 7546]","[u'right', u'right', u'up']",train_basic,"[u'0', u'5', u'6', u'7']","{u'mouseover': {u'state': {u'target': [], u'time': []}, u'edge': {u'target': [], u'time': []}}, u'click': {u'state': {u'target': [], u'time': []}, u'edge': {u'target': [], u'time': []}}, u'mouseout': {u'state': {u'target': [], u'time': []}, u'edge': {u'target': [], u'time': []}}}","[10, 10, 10]","[5070, 672, 771]",30.0,"[None, None, None]","[u'', -5, 10, 10, 5, 10, 10, 10, 10, -10, 5, 5, 5]",81868,3.0,-6.980762109714071e+18,mouselab-mdp,3
"[6122, 7092, 8368]","[u'right', u'right', u'down']",train_basic,"[u'0', u'5', u'6', u'8']","{u'mouseover': {u'state': {u'target': [], u'time': []}, u'edge': {u'target': [], u'time': []}}, u'click': {u'state': {u'target': [], u'time': []}, u'edge': {u'target': [], u'time': []}}, u'mouseout': {u'state': {u'target': [], u'time': []}, u'edge': {u'target': [], u'time': []}}}","[10, 5, 5]","[6119, 468, 769]",20.0,"[None, None, None]","[u'', 5, -10, -5, 10, 10, 5, -10, 5, 5, -5, -5, 5]",99340,4.0,8.034619116489217e+18,mouselab-mdp,3
"[8905, 9888, 10784]","[u'right', u'right', u'up']",train_basic,"[u'0', u'5', u'6', u'7']","{u'mouseover': {u'state': {u'target': [], u'time': []}, u'edge': {u'target': [], u'time': []}}, u'click': {u'state': {u'target': [], u'time': []}, u'edge': {u'target': [], u'time': []}}, u'mouseout': {u'state': {u'target': [], u'time': []}, u'edge': {u'target': [], u'time': []}}}","[-10, 10, -5]","[8902, 466, 395]",-5.0,"[None, None, None]","[u'', 10, -10, -5, -5, -10, 10, -5, 5, -5, -10, -10, -10]",115695,5.0,-3.7612916714616883e+18,mouselab-mdp,3
"[6592, 7643, 8533]","[u'left', u'left', u'up']",train_basic,"[u'0', u'9', u'10', u'11']","{u'mouseover': {u'state': {u'target': [], u'time': []}, u'edge': {u'target': [], u'time': []}}, u'click': {u'state': {u'target': [], u'time': []}, u'edge': {u'target': [], u'time': []}}, u'mouseout': {u'state': {u'target': [], u'time': []}, u'edge': {u'target': [], u'time': []}}}","[10, -5, 10]","[6590, 539, 382]",15.0,"[None, None, None]","[u'', 10, -5, -10, -10, -10, 10, -10, -5, 10, -5, 10, -5]",127322,6.0,9.076059563084848e+18,mouselab-mdp,3
"[3423, 4692, 5899]","[u'up', u'up', u'right']",train_basic,"[u'0', u'1', u'2', u'3']","{u'mouseover': {u'state': {u'target': [], u'time': []}, u'edge': {u'target': [], u'time': []}}, u'click': {u'state': {u'target': [], u'time': []}, u'edge': {u'target': [], u'time': []}}, u'mouseout': {u'state': {u'target': [], u'time': []}, u'edge': {u'target': [], u'time': []}}}","[-10, 10, 5]","[3420, 761, 700]",5.0,"[None, None, None]","[u'', -10, 10, 5, 5, -5, -10, -10, -5, -10, -10, 5, 5]",136137,7.0,3.4622403069545196e+18,mouselab-mdp,3
"[3657, 4474, 5355]","[u'up', u'up', u'left']",train_basic,"[u'0', u'1', u'2', u'4']","{u'mouseover': {u'state': {u'target': [], u'time': []}, u'edge': {u'target': [], u'time': []}}, u'click': {u'state': {u'target': [], u'time': []}, u'edge': {u'target': [], u'time': []}}, u'mouseout': {u'state': {u'target': [], u'time': []}, u'edge': {u'target': [], u'time': []}}}","[-5, 10, 5]","[3653, 310, 358]",10.0,"[None, None, None]","[u'', -5, 10, -5, 5, 5, -10, -10, -5, 10, -5, 10, -10]",143888,8.0,1.0826444805002026e+18,mouselab-mdp,3
"[3627, 4384, 5181]","[u'up', u'up', u'left']",train_basic,"[u'0', u'1', u'2', u'4']","{u'mouseover': {u'state': {u'target': [], u'time': []}, u'edge': {u'target': [], u'time': []}}, u'click': {u'state': {u'target': [], u'time': []}, u'edge': {u'target': [], u'time': []}}, u'mouseout': {u'state': {u'target': [], u'time': []}, u'edge': {u'target': [], u'time': []}}}","[-10, 10, 5]","[3623, 248, 294]",5.0,"[None, None, None]","[u'', -10, 10, -5, 5, 5, -10, -10, -10, -10, -5, -10, -10]",151771,9.0,6.612009546738605e+18,mouselab-mdp,3
"[11632, 13103, 14396]","[u'up', u'up', u'right']",train_hidden,"[u'0', u'1', u'2', u'3']","{u'mouseover': {u'state': {u'target': [], u'time': []}, u'edge': {u'target': [], u'time': []}}, u'click': {u'state': {u'target': [], u'time': []}, u'edge': {u'target': [], u'time': []}}, u'mouseout': {u'state': {u'target': [], u'time': []}, u'edge': {u'target': [], u'time': []}}}","[5, -5, 10]","[11629, 967, 785]",10.0,"[None, None, None]","[u'', 5, -5, 10, -5, -5, 5, 10, -10, 5, 10, -10, 5]",171573,10.0,4.859092002678591e+18,mouselab-mdp,3
"[2868, 3992, 5046]","[u'left', u'left', u'up']",train_hidden,"[u'0', u'9', u'10', u'11']","{u'mouseover': {u'state': {u'target': [], u'time': []}, u'edge': {u'target': [], u'time': []}}, u'click': {u'state': {u'target': [], u'time': []}, u'edge': {u'target': [], u'time': []}}, u'mouseout': {u'state': {u'target': [], u'time': []}, u'edge': {u'target': [], u'time': []}}}","[-10, 5, 10]","[2865, 625, 552]",5.0,"[None, None, None]","[u'', 5, -5, -10, 5, 5, 5, -10, 10, -10, 5, 10, -10]",179227,11.0,-4.2127595583966556e+18,mouselab-mdp,3
"[2154, 3238, 5754]","[u'right', u'right', u'up']",train_hidden,"[u'0', u'5', u'6', u'7']","{u'mouseover': {u'state': {u'target': [], u'time': []}, u'edge': {u'target': [], u'time': []}}, u'click': {u'state': {u'target': [], u'time': []}, u'edge': {u'target': [], u'time': []}}, u'mouseout': {u'state': {u'target': [], u'time': []}, u'edge': {u'target': [], u'time': []}}}","[10, 10, -10]","[2151, 579, 2009]",10.0,"[None, None, None]","[u'', -5, 5, 5, 5, 10, 10, -10, 5, -5, 10, -10, -5]",187554,12.0,9.142111453001215e+18,mouselab-mdp,3
"[2016, 3038, 4122]","[u'right', u'right', u'up']",train_hidden,"[u'0', u'5', u'6', u'7']","{u'mouseover': {u'state': {u'target': [], u'time': []}, u'edge': {u'target': [], u'time': []}}, u'click': {u'state': {u'target': [], u'time': []}, u'edge': {u'target': [], u'time': []}}, u'mouseout': {u'state': {u'target': [], u'time': []}, u'edge': {u'target': [], u'time': []}}}","[10, 5, 5]","[2013, 515, 576]",20.0,"[None, None, None]","[u'', -10, -10, -10, -10, 10, 5, 5, 10, -10, -5, 5, 10]",194205,13.0,-6.516136021771222e+18,mouselab-mdp,3
"[1892, 2985, 4018]","[u'right', u'right', u'up']",train_hidden,"[u'0', u'5', u'6', u'7']","{u'mouseover': {u'state': {u'target': [], u'time': []}, u'edge': {u'target': [], u'time': []}}, u'click': {u'state': {u'target': [], u'time': []}, u'edge': {u'target': [], u'time': []}}, u'mouseout': {u'state': {u'target': [], u'time': []}, u'edge': {u'target': [], u'time': []}}}","[-10, -10, 5]","[1889, 586, 529]",-15.0,"[None, None, None]","[u'', 5, 5, 5, 5, -10, -10, 5, 10, -10, -5, -5, -5]",201004,14.0,-5.299628366905943e+18,mouselab-mdp,3
"[5060, 6072, 7084]","[u'left', u'left', u'up']",train_inspector,"[u'0', u'9', u'10', u'11']","{u'mouseover': {u'state': {u'target': [], u'time': []}, u'edge': {u'target': [], u'time': []}}, u'click': {u'state': {u'target': [], u'time': []}, u'edge': {u'target': [], u'time': []}}, u'mouseout': {u'state': {u'target': [], u'time': []}, u'edge': {u'target': [], u'time': []}}}","[10, -10, -5]","[5056, 500, 513]",-5.0,"[None, None, None]","[u'', 10, -5, 5, 5, 10, 5, 10, -10, 10, -10, -5, 10]",213955,15.0,-3.683992464584856e+18,mouselab-mdp,3
"[1337, 2348, 3382]","[u'up', u'up', u'right']",train_inspector,"[u'0', u'1', u'2', u'3']","{u'mouseover': {u'state': {u'target': [], u'time': []}, u'edge': {u'target': [], u'time': []}}, u'click': {u'state': {u'target': [], u'time': []}, u'edge': {u'target': [], u'time': []}}, u'mouseout': {u'state': {u'target': [], u'time': []}, u'edge': {u'target': [], u'time': []}}}","[-5, 10, 10]","[1333, 496, 526]",15.0,"[None, None, None]","[u'', -5, 10, 10, 5, -5, 5, -10, 10, 10, -10, -10, -10]",219845,16.0,7.801448459840969e+18,mouselab-mdp,3
"[717, 1718, 2701]","[u'up', u'up', u'right']",train_inspector,"[u'0', u'1', u'2', u'3']","{u'mouseover': {u'state': {u'target': [], u'time': []}, u'edge': {u'target': [], u'time': []}}, u'click': {u'state': {u'target': [], u'time': []}, u'edge': {u'target': [], u'time': []}}, u'mouseout': {u'state': {u'target': [], u'time': []}, u'edge': {u'target': [], u'time': []}}}","[-5, 10, -5]","[714, 492, 477]",0.0,"[None, None, None]","[u'', -5, 10, -5, -5, -5, 5, -10, 5, -10, -10, 10, -10]",224756,17.0,3.932980794305715e+18,mouselab-mdp,3
"[680, 1621, 2604]","[u'left', u'left', u'down']",train_inspector,"[u'0', u'9', u'10', u'12']","{u'mouseover': {u'state': {u'target': [], u'time': []}, u'edge': {u'target': [], u'time': []}}, u'click': {u'state': {u'target': [], u'time': []}, u'edge': {u'target': [], u'time': []}}, u'mouseout': {u'state': {u'target': [], u'time': []}, u'edge': {u'target': [], u'time': []}}}","[5, -10, 5]","[676, 432, 476]",0.0,"[None, None, None]","[u'', 10, 5, 10, -5, 10, -5, -10, 10, 5, -10, 10, 5]",229994,18.0,3.6441571471145324e+18,mouselab-mdp,3
"[689, 1669, 2714]","[u'right', u'right', u'up']",train_inspector,"[u'0', u'5', u'6', u'7']","{u'mouseover': {u'state': {u'target': [], u'time': []}, u'edge': {u'target': [], u'time': []}}, u'click': {u'state': {u'target': [], u'time': []}, u'edge': {u'target': [], u'time': []}}, u'mouseout': {u'state': {u'target': [], u'time': []}, u'edge': {u'target': [], u'time': []}}}","[-10, 10, 10]","[685, 470, 538]",10.0,"[None, None, None]","[u'', -5, 5, 5, 5, -10, 10, 10, 5, -10, 10, -10, -5]",234908,19.0,-8.511375057859465e+18,mouselab-mdp,3
"[19052, 20241, 21929]","[u'up', u'up', u'right']",train_inspect_cost,"[u'0', u'1', u'2', u'3']","{u'mouseover': {u'state': {u'target': [], u'time': []}, u'edge': {u'target': [], u'time': []}}, u'click': {u'state': {u'target': [], u'time': []}, u'edge': {u'target': [], u'time': []}}, u'mouseout': {u'state': {u'target': [], u'time': []}, u'edge': {u'target': [], u'time': []}}}","[5, -10, 10]","[19048, 673, 1180]",5.0,"[None, None, None]","[u'', 5, -10, 10, -10, -5, 10, -10, 5, 5, 10, -5, -10]",261913,20.0,-5.616229570178317e+18,mouselab-mdp,3
"[3887, 5423, 6415]","[u'left', u'left', u'up']",train_inspect_cost,"[u'0', u'9', u'10', u'11']","{u'mouseover': {u'state': {u'target': [], u'time': []}, u'edge': {u'target': [], u'time': []}}, u'click': {u'state': {u'target': [], u'time': []}, u'edge': {u'target': [], u'time': []}}, u'mouseout': {u'state': {u'target': [], u'time': []}, u'edge': {u'target': [], u'time': []}}}","[5, -10, -10]","[3886, 1023, 499]",-15.0,"[None, None, None]","[u'', 5, -10, 10, -10, 10, -5, 10, 5, 5, -10, -10, -10]",271053,21.0,-6.90593884411209e+17,mouselab-mdp,3
"[1663, 2799, 3934]","[u'right', u'right', u'down']",train_inspect_cost,"[u'0', u'5', u'6', u'8']","{u'mouseover': {u'state': {u'target': [], u'time': []}, u'edge': {u'target': [], u'time': []}}, u'click': {u'state': {u'target': [], u'time': []}, u'edge': {u'target': [], u'time': []}}, u'mouseout': {u'state': {u'target': [], u'time': []}, u'edge': {u'target': [], u'time': []}}}","[10, 10, 10]","[1659, 629, 628]",30.0,"[None, None, None]","[u'', -5, -5, 5, 5, 10, 10, -5, 10, -10, -10, -10, 5]",277542,22.0,4.176600634517876e+18,mouselab-mdp,3
"[1202, 2256, 3272]","[u'right', u'right', u'up']",train_inspect_cost,"[u'0', u'5', u'6', u'7']","{u'mouseover': {u'state': {u'target': [], u'time': []}, u'edge': {u'target': [], u'time': []}}, u'click': {u'state': {u'target': [], u'time': []}, u'edge': {u'target': [], u'time': []}}, u'mouseout': {u'state': {u'target': [], u'time': []}, u'edge': {u'target': [], u'time': []}}}","[-10, -5, -5]","[1200, 550, 508]",-20.0,"[None, None, None]","[u'', 10, 10, 5, 5, -10, -5, -5, -10, 5, -5, 10, 10]",283430,23.0,8.086241799233455e+18,mouselab-mdp,3
"[484, 1487, 2419]","[u'up', u'up', u'right']",train_inspect_cost,"[u'0', u'1', u'2', u'3']","{u'mouseover': {u'state': {u'target': [], u'time': []}, u'edge': {u'target': [], u'time': []}}, u'click': {u'state': {u'target': [], u'time': []}, u'edge': {u'target': [], u'time': []}}, u'mouseout': {u'state': {u'target': [], u'time': []}, u'edge': {u'target': [], u'time': []}}}","[10, -5, 5]","[481, 495, 430]",10.0,"[None, None, None]","[u'', 10, -5, 5, -5, -5, -5, -5, -5, 5, -5, 10, 5]",288427,24.0,1.3034732393768448e+18,mouselab-mdp,3
"[18348, 19564, 20587]","[u'up', u'up', u'right']",train_final,"[u'0', u'1', u'2', u'3']","{u'mouseover': {u'state': {u'target': [], u'time': []}, u'edge': {u'target': [], u'time': []}}, u'click': {u'state': {u'target': [], u'time': []}, u'edge': {u'target': [], u'time': []}}, u'mouseout': {u'state': {u'target': [], u'time': []}, u'edge': {u'target': [], u'time': []}}}","[-5, 10, -5]","[18346, 709, 502]",0.0,"[None, None, None]","[u'', -5, 10, -5, 10, 5, 5, -10, 5, 10, -5, 10, 10]",313401,25.0,3.8024071126860584e+16,mouselab-mdp,3
"[378, 1279, 2203]","[u'left', u'left', u'down']",train_final,"[u'0', u'9', u'10', u'12']","{u'mouseover': {u'state': {u'target': [], u'time': []}, u'edge': {u'target': [], u'time': []}}, u'click': {u'state': {u'target': [], u'time': []}, u'edge': {u'target': [], u'time': []}}, u'mouseout': {u'state': {u'target': [], u'time': []}, u'edge': {u'target': [], u'time': []}}}","[10, 10, 5]","[375, 396, 420]",25.0,"[None, None, None]","[u'', -5, 10, 5, 10, 5, 5, -5, 5, 10, 10, 10, 5]",318580,26.0,-6.877572132778754e+18,mouselab-mdp,3
"[645, 1566, 2823]","[u'up', u'up', u'right']",train_final,"[u'0', u'1', u'2', u'3']","{u'mouseover': {u'state': {u'target': [], u'time': []}, u'edge': {u'target': [], u'time': []}}, u'click': {u'state': {u'target': [], u'time': []}, u'edge': {u'target': [], u'time': []}}, u'mouseout': {u'state': {u'target': [], u'time': []}, u'edge': {u'target': [], u'time': []}}}","[-5, -10, 5]","[642, 410, 737]",-10.0,"[None, None, None]","[u'', -5, -10, 5, 5, 5, -5, 5, -10, -5, -5, -5, -10]",323801,27.0,-7.611027172769307e+18,mouselab-mdp,3
"[842, 1693, 2577]","[u'right', u'right', u'up']",train_final,"[u'0', u'5', u'6', u'7']","{u'mouseover': {u'state': {u'target': [], u'time': []}, u'edge': {u'target': [], u'time': []}}, u'click': {u'state': {u'target': [], u'time': []}, u'edge': {u'target': [], u'time': []}}, u'mouseout': {u'state': {u'target': [], u'time': []}, u'edge': {u'target': [], u'time': []}}}","[-5, -10, 10]","[839, 349, 379]",-5.0,"[None, None, None]","[u'', -5, 10, 5, 10, -5, -10, 10, 10, 5, 5, 5, 10]",328776,28.0,8.130696467842232e+18,mouselab-mdp,3
"[431, 1232, 2050]","[u'up', u'up', u'left']",train_final,"[u'0', u'1', u'2', u'4']","{u'mouseover': {u'state': {u'target': [], u'time': []}, u'edge': {u'target': [], u'time': []}}, u'click': {u'state': {u'target': [], u'time': []}, u'edge': {u'target': [], u'time': []}}, u'mouseout': {u'state': {u'target': [], u'time': []}, u'edge': {u'target': [], u'time': []}}}","[-10, -5, -10]","[429, 304, 315]",-25.0,"[None, None, None]","[u'', -10, -5, 10, -10, -5, -10, 10, 10, -10, -5, -10, 10]",332934,29.0,-7.342034422792319e+18,mouselab-mdp,3
"[3496, 4631, 5616]","[u'up', u'up', u'left']",test,"[u'0', u'1', u'2', u'4']","{u'mouseover': {u'state': {u'target': [], u'time': []}, u'edge': {u'target': [], u'time': []}}, u'click': {u'state': {u'target': [], u'time': []}, u'edge': {u'target': [], u'time': []}}, u'mouseout': {u'state': {u'target': [], u'time': []}, u'edge': {u'target': [], u'time': []}}}","[-5, 5, 10]","[3493, 629, 477]",10.0,"[None, None, None]","[u'', -5, 5, -5, 10, -5, 10, 10, 10, -5, -10, -10, -5]",390712,30.0,3.7409315186213e+18,mouselab-mdp,3
"[550, 1670, 2682]","[u'left', u'left', u'up']",test,"[u'0', u'9', u'10', u'11']","{u'mouseover': {u'state': {u'target': [], u'time': []}, u'edge': {u'target': [], u'time': []}}, u'click': {u'state': {u'target': [], u'time': []}, u'edge': {u'target': [], u'time': []}}, u'mouseout': {u'state': {u'target': [], u'time': []}, u'edge': {u'target': [], u'time': []}}}","[10, -5, 5]","[547, 619, 506]",10.0,"[None, None, None]","[u'', -5, -10, 5, 5, -5, -10, 5, -5, 10, -5, 5, -10]",395982,31.0,-8.166458029472813e+18,mouselab-mdp,3
"[732, 1765, 2747]","[u'left', u'left', u'down']",test,"[u'0', u'9', u'10', u'12']","{u'mouseover': {u'state': {u'target': [], u'time': []}, u'edge': {u'target': [], u'time': []}}, u'click': {u'state': {u'target': [], u'time': []}, u'edge': {u'target': [], u'time': []}}, u'mouseout': {u'state': {u'target': [], u'time': []}, u'edge': {u'target': [], u'time': []}}}","[-10, -10, -5]","[730, 525, 458]",-25.0,"[None, None, None]","[u'', 5, -5, 10, -10, 5, -10, 5, -5, -10, -10, 5, -5]",401042,32.0,-6.260275842353281e+18,mouselab-mdp,3
"[483, 1526, 2549]","[u'up', u'up', u'right']",test,"[u'0', u'1', u'2', u'3']","{u'mouseover': {u'state': {u'target': [], u'time': []}, u'edge': {u'target': [], u'time': []}}, u'click': {u'state': {u'target': [], u'time': []}, u'edge': {u'target': [], u'time': []}}, u'mouseout': {u'state': {u'target': [], u'time': []}, u'edge': {u'target': [], u'time': []}}}","[-5, -10, 10]","[482, 536, 515]",-5.0,"[None, None, None]","[u'', -5, -10, 10, 5, 10, 5, 10, 5, 5, -10, -5, -10]",405924,33.0,3.569831271632112e+18,mouselab-mdp,3
"[896, 1901, 2895]","[u'left', u'left', u'up']",test,"[u'0', u'9', u'10', u'11']","{u'mouseover': {u'state': {u'target': [], u'time': []}, u'edge': {u'target': [], u'time': []}}, u'click': {u'state': {u'target': [], u'time': []}, u'edge': {u'target': [], u'time': []}}, u'mouseout': {u'state': {u'target': [], u'time': []}, u'edge': {u'target': [], u'time': []}}}","[10, 5, 10]","[894, 498, 488]",25.0,"[None, None, None]","[u'', -10, 10, -5, -10, 10, -5, 10, 5, 10, 5, 10, -5]",411299,34.0,1.9920789159475208e+18,mouselab-mdp,3
"[778, 1842, 2854]","[u'left', u'left', u'up']",test,"[u'0', u'9', u'10', u'11']","{u'mouseover': {u'state': {u'target': [], u'time': []}, u'edge': {u'target': [], u'time': []}}, u'click': {u'state': {u'target': [], u'time': []}, u'edge': {u'target': [], u'time': []}}, u'mouseout': {u'state': {u'target': [], u'time': []}, u'edge': {u'target': [], u'time': []}}}","[10, 10, 5]","[776, 557, 506]",25.0,"[None, None, None]","[u'', 5, 10, -10, -10, 10, 5, -10, 10, 10, 10, 5, -10]",416760,35.0,-8.624537318595376e+18,mouselab-mdp,3
