action_times,actions,block,path,queries,rewards,rt,score,simulation_mode,state_rewards,time_elapsed,trial_index,trial_time,trial_id,trial_type,pid
"[20405, 23325, 25392]","[u'up', u'up', u'right']",train_basic,"[u'0', u'1', u'2', u'3']","{u'mouseover': {u'state': {u'target': [], u'time': []}, u'edge': {u'target': [], u'time': []}}, u'click': {u'state': {u'target': [], u'time': []}, u'edge': {u'target': [], u'time': []}}, u'mouseout': {u'state': {u'target': [], u'time': []}, u'edge': {u'target': [], u'time': []}}}","[-10, 10, -5]","[20402, 2393, 1545]",-5.0,"[None, None, None]","[u'', -10, 10, -5, -10, 10, -5, 10, 5, 10, 5, 10, -5]",29394,0.0,29197.0,1.9920789159475208e+18,mouselab-mdp,0
"[3395, 4109, 4703]","[u'up', u'up', u'right']",train_basic,"[u'0', u'1', u'2', u'3']","{u'mouseover': {u'state': {u'target': [], u'time': []}, u'edge': {u'target': [], u'time': []}}, u'click': {u'state': {u'target': [], u'time': []}, u'edge': {u'target': [], u'time': []}}, u'mouseout': {u'state': {u'target': [], u'time': []}, u'edge': {u'target': [], u'time': []}}}","[-5, 10, 10]","[3391, 189, 67]",15.0,"[None, None, None]","[u'', -5, 10, 10, 5, -5, 5, -10, 10, 10, -10, -10, -10]",37855,1.0,7264.0,7.801448459840969e+18,mouselab-mdp,0
"[2760, 3438, 4106]","[u'right', u'right', u'down']",train_basic,"[u'0', u'5', u'6', u'8']","{u'mouseover': {u'state': {u'target': [], u'time': []}, u'edge': {u'target': [], u'time': []}}, u'click': {u'state': {u'target': [], u'time': []}, u'edge': {u'target': [], u'time': []}}, u'mouseout': {u'state': {u'target': [], u'time': []}, u'edge': {u'target': [], u'time': []}}}","[10, 5, 5]","[2759, 145, 146]",20.0,"[None, None, None]","[u'', 5, -10, -5, 10, 10, 5, -10, 5, 5, -5, -5, 5]",44896,2.0,5897.0,8.034619116489217e+18,mouselab-mdp,0
"[1641, 2315, 2955]","[u'right', u'right', u'up']",train_basic,"[u'0', u'5', u'6', u'7']","{u'mouseover': {u'state': {u'target': [], u'time': []}, u'edge': {u'target': [], u'time': []}}, u'click': {u'state': {u'target': [], u'time': []}, u'edge': {u'target': [], u'time': []}}, u'mouseout': {u'state': {u'target': [], u'time': []}, u'edge': {u'target': [], u'time': []}}}","[10, 10, 10]","[1640, 152, 108]",30.0,"[None, None, None]","[u'', -5, 5, 5, -10, 10, 10, 10, -5, 5, -5, 5, 10]",50494,3.0,4482.0,-2.6104954135648773e+18,mouselab-mdp,0
"[2801, 3550, 4299]","[u'left', u'left', u'up']",train_basic,"[u'0', u'9', u'10', u'11']","{u'mouseover': {u'state': {u'target': [], u'time': []}, u'edge': {u'target': [], u'time': []}}, u'click': {u'state': {u'target': [], u'time': []}, u'edge': {u'target': [], u'time': []}}, u'mouseout': {u'state': {u'target': [], u'time': []}, u'edge': {u'target': [], u'time': []}}}","[10, 10, 10]","[2799, 217, 216]",30.0,"[None, None, None]","[u'', -5, 10, 5, 10, 5, 5, -5, 5, 10, 10, 10, 5]",57293,4.0,5684.0,-6.877572132778754e+18,mouselab-mdp,0
"[1715, 2340, 2964]","[u'up', u'up', u'left']",train_basic,"[u'0', u'1', u'2', u'4']","{u'mouseover': {u'state': {u'target': [], u'time': []}, u'edge': {u'target': [], u'time': []}}, u'click': {u'state': {u'target': [], u'time': []}, u'edge': {u'target': [], u'time': []}}, u'mouseout': {u'state': {u'target': [], u'time': []}, u'edge': {u'target': [], u'time': []}}}","[10, 10, 10]","[1713, 87, 95]",30.0,"[None, None, None]","[u'', 10, 10, 5, 10, -10, -10, -5, -5, 10, -5, 5, 10]",62311,5.0,3872.0,-3.019010559255296e+18,mouselab-mdp,0
"[2041, 2770, 3391]","[u'right', u'right', u'up']",train_basic,"[u'0', u'5', u'6', u'7']","{u'mouseover': {u'state': {u'target': [], u'time': []}, u'edge': {u'target': [], u'time': []}}, u'click': {u'state': {u'target': [], u'time': []}, u'edge': {u'target': [], u'time': []}}, u'mouseout': {u'state': {u'target': [], u'time': []}, u'edge': {u'target': [], u'time': []}}}","[10, 5, 10]","[2039, 195, 98]",25.0,"[None, None, None]","[u'', -5, -10, 10, 5, 10, 5, 10, 5, 5, -10, -5, -10]",68426,6.0,4993.0,3.569831271632112e+18,mouselab-mdp,0
"[3757, 4592, 5256]","[u'left', u'left', u'down']",train_basic,"[u'0', u'9', u'10', u'12']","{u'mouseover': {u'state': {u'target': [], u'time': []}, u'edge': {u'target': [], u'time': []}}, u'click': {u'state': {u'target': [], u'time': []}, u'edge': {u'target': [], u'time': []}}, u'mouseout': {u'state': {u'target': [], u'time': []}, u'edge': {u'target': [], u'time': []}}}","[10, -5, 10]","[3755, 302, 133]",15.0,"[None, None, None]","[u'', 10, -10, 10, 5, -5, -5, 5, -5, 10, -5, 10, 10]",76814,7.0,7264.0,-2.528293413986772e+18,mouselab-mdp,0
"[3378, 4030, 4795]","[u'left', u'left', u'up']",train_basic,"[u'0', u'9', u'10', u'11']","{u'mouseover': {u'state': {u'target': [], u'time': []}, u'edge': {u'target': [], u'time': []}}, u'click': {u'state': {u'target': [], u'time': []}, u'edge': {u'target': [], u'time': []}}, u'mouseout': {u'state': {u'target': [], u'time': []}, u'edge': {u'target': [], u'time': []}}}","[-5, 10, 5]","[3375, 121, 235]",10.0,"[None, None, None]","[u'', -10, -10, 10, -10, -5, -10, 10, 5, -5, 10, 5, -5]",86872,8.0,8924.0,5.603840126336082e+18,mouselab-mdp,0
"[5428, 6181, 6747]","[u'up', u'up', u'right']",train_basic,"[u'0', u'1', u'2', u'3']","{u'mouseover': {u'state': {u'target': [], u'time': []}, u'edge': {u'target': [], u'time': []}}, u'click': {u'state': {u'target': [], u'time': []}, u'edge': {u'target': [], u'time': []}}, u'mouseout': {u'state': {u'target': [], u'time': []}, u'edge': {u'target': [], u'time': []}}}","[-5, -5, 10]","[5426, 222, 37]",0.0,"[None, None, None]","[u'', -5, -5, 10, 5, -5, -5, -10, -5, -10, -5, 5, 10]",96581,9.0,8601.0,-2.317078987107653e+18,mouselab-mdp,0
"[9424, 10345, 11956]","[u'right', u'right', u'up']",train_hidden,"[u'0', u'5', u'6', u'7']","{u'mouseover': {u'state': {u'target': [], u'time': []}, u'edge': {u'target': [], u'time': []}}, u'click': {u'state': {u'target': [], u'time': []}, u'edge': {u'target': [], u'time': []}}, u'mouseout': {u'state': {u'target': [], u'time': []}, u'edge': {u'target': [], u'time': []}}}","[5, -10, -10]","[9423, 388, 1083]",-15.0,"[None, None, None]","[u'', -10, -10, -10, 5, 5, -10, -10, 10, 5, -10, -5, 5]",112963,10.0,13414.0,7.530557414679124e+18,mouselab-mdp,0
"[1215, 2321, 3712]","[u'up', u'up', u'left']",train_hidden,"[u'0', u'1', u'2', u'4']","{u'mouseover': {u'state': {u'target': [], u'time': []}, u'edge': {u'target': [], u'time': []}}, u'click': {u'state': {u'target': [], u'time': []}, u'edge': {u'target': [], u'time': []}}, u'mouseout': {u'state': {u'target': [], u'time': []}, u'edge': {u'target': [], u'time': []}}}","[10, -5, -5]","[1214, 585, 860]",0.0,"[None, None, None]","[u'', 10, -5, 5, -5, -5, -5, -5, -5, 5, -5, 10, 5]",119688,11.0,5602.0,1.3034732393768448e+18,mouselab-mdp,0
"[884, 3878, 5281]","[u'up', u'up', u'right']",train_hidden,"[u'0', u'1', u'2', u'3']","{u'mouseover': {u'state': {u'target': [], u'time': []}, u'edge': {u'target': [], u'time': []}}, u'click': {u'state': {u'target': [], u'time': []}, u'edge': {u'target': [], u'time': []}}, u'mouseout': {u'state': {u'target': [], u'time': []}, u'edge': {u'target': [], u'time': []}}}","[-10, 10, 5]","[882, 2471, 876]",5.0,"[None, None, None]","[u'', -10, 10, 5, 5, -5, -10, -10, -5, -10, -10, 5, 5]",127357,12.0,6558.0,3.4622403069545196e+18,mouselab-mdp,0
"[421, 2193, 3570]","[u'left', u'left', u'up']",train_hidden,"[u'0', u'9', u'10', u'11']","{u'mouseover': {u'state': {u'target': [], u'time': []}, u'edge': {u'target': [], u'time': []}}, u'click': {u'state': {u'target': [], u'time': []}, u'edge': {u'target': [], u'time': []}}, u'mouseout': {u'state': {u'target': [], u'time': []}, u'edge': {u'target': [], u'time': []}}}","[-10, -5, -5]","[419, 1251, 843]",-20.0,"[None, None, None]","[u'', 5, 5, 5, 5, -10, -10, 5, 10, -10, -5, -5, -5]",133410,13.0,4948.0,-5.299628366905943e+18,mouselab-mdp,0
"[1494, 2688, 4095]","[u'up', u'up', u'right']",train_hidden,"[u'0', u'1', u'2', u'3']","{u'mouseover': {u'state': {u'target': [], u'time': []}, u'edge': {u'target': [], u'time': []}}, u'click': {u'state': {u'target': [], u'time': []}, u'edge': {u'target': [], u'time': []}}, u'mouseout': {u'state': {u'target': [], u'time': []}, u'edge': {u'target': [], u'time': []}}}","[10, 5, 10]","[1489, 673, 882]",25.0,"[None, None, None]","[u'', 10, 5, 10, 5, 10, -5, 5, -10, -5, -10, -5, -10]",139981,14.0,5424.0,-8.861839220469794e+18,mouselab-mdp,0
"[34434, 35145, 35818]","[u'left', u'left', u'up']",train_inspector,"[u'0', u'9', u'10', u'11']","{u'mouseover': {u'state': {u'target': [], u'time': []}, u'edge': {u'target': [], u'time': []}}, u'click': {u'state': {u'target': [u'1', u'5', u'2', u'4', u'3', u'6', u'8', u'7', u'9', u'10', u'12', u'11'], u'time': [13578, 15492, 19867, 21200, 23524, 24696, 25273, 26215, 27141, 27685, 28167, 28867]}, u'edge': {u'target': [], u'time': []}}, u'mouseout': {u'state': {u'target': [], u'time': []}, u'edge': {u'target': [], u'time': []}}}","[5, -10, 10]","[34431, 183, 139]",5.0,"[None, None, None]","[u'', -10, -5, -5, 5, -5, 5, 5, 5, 5, -10, 10, 10]",180254,15.0,37213.0,5.514906028833953e+18,mouselab-mdp,0
"[13128, 14980, 15668]","[u'left', u'left', u'down']",train_inspector,"[u'0', u'9', u'10', u'12']","{u'mouseover': {u'state': {u'target': [], u'time': []}, u'edge': {u'target': [], u'time': []}}, u'click': {u'state': {u'target': [u'1', u'2', u'4', u'3', u'5', u'6', u'8', u'7', u'10', u'12', u'9', u'11'], u'time': [1718, 2307, 2853, 4330, 5008, 5583, 6943, 7465, 8407, 8890, 9815, 10384]}, u'edge': {u'target': [], u'time': []}}, u'mouseout': {u'state': {u'target': [], u'time': []}, u'edge': {u'target': [], u'time': []}}}","[-5, 10, 10]","[13126, 1344, 168]",15.0,"[None, None, None]","[u'', -10, 10, 10, -10, -10, -5, -10, 10, -5, 10, 5, 10]",198541,16.0,17157.0,-3.5316257003419013e+18,mouselab-mdp,0
"[16705, 17346, 18096]","[u'right', u'right', u'down']",train_inspector,"[u'0', u'5', u'6', u'8']","{u'mouseover': {u'state': {u'target': [], u'time': []}, u'edge': {u'target': [], u'time': []}}, u'click': {u'state': {u'target': [u'1', u'2', u'4', u'3', u'5', u'6', u'8', u'7', u'9', u'10', u'12', u'11'], u'time': [1433, 1968, 2918, 6520, 7360, 8553, 9168, 9743, 10909, 11344, 11735, 12217]}, u'edge': {u'target': [], u'time': []}}, u'mouseout': {u'state': {u'target': [], u'time': []}, u'edge': {u'target': [], u'time': []}}}","[10, 5, -10]","[16704, 119, 219]",5.0,"[None, None, None]","[u'', -10, 5, 5, -5, 10, 5, -10, -10, -10, -5, -10, 5]",218992,17.0,19319.0,6.62653966049298e+17,mouselab-mdp,0
"[15470, 16480, 17191]","[u'up', u'up', u'left']",train_inspector,"[u'0', u'1', u'2', u'4']","{u'mouseover': {u'state': {u'target': [], u'time': []}, u'edge': {u'target': [], u'time': []}}, u'click': {u'state': {u'target': [u'1', u'2', u'4', u'3', u'5', u'6', u'8', u'7', u'9', u'12', u'10', u'11'], u'time': [1667, 2109, 2629, 3243, 4511, 5017, 6551, 7133, 8309, 9257, 10044, 12094]}, u'edge': {u'target': [], u'time': []}}, u'mouseout': {u'state': {u'target': [], u'time': []}, u'edge': {u'target': [], u'time': []}}}","[-10, 10, 10]","[15468, 487, 182]",10.0,"[None, None, None]","[u'', -10, 10, -10, 10, 5, -5, 10, -10, 5, -10, 5, -10]",238352,18.0,18228.0,8.916704547234911e+18,mouselab-mdp,0
"[12020, 13286, 13936]","[u'left', u'left', u'up']",train_inspector,"[u'0', u'9', u'10', u'11']","{u'mouseover': {u'state': {u'target': [], u'time': []}, u'edge': {u'target': [], u'time': []}}, u'click': {u'state': {u'target': [u'1', u'4', u'2', u'3', u'5', u'6', u'8', u'7', u'9', u'12', u'10', u'11'], u'time': [1589, 2493, 3054, 4049, 4717, 5318, 5836, 6438, 7673, 8148, 8648, 9089]}, u'edge': {u'target': [], u'time': []}}, u'mouseout': {u'state': {u'target': [], u'time': []}, u'edge': {u'target': [], u'time': []}}}","[5, -10, 5]","[12018, 733, 118]",0.0,"[None, None, None]","[u'', -5, -10, -10, 5, -10, -5, -5, -10, 5, -10, 5, 5]",254997,19.0,15517.0,7.710656893126775e+18,mouselab-mdp,0
"[24358, 25047, 25686]","[u'left', u'left', u'up']",train_inspect_cost,"[u'0', u'9', u'10', u'11']","{u'mouseover': {u'state': {u'target': [], u'time': []}, u'edge': {u'target': [], u'time': []}}, u'click': {u'state': {u'target': [u'1', u'9', u'10', u'11'], u'time': [10495, 16951, 20813, 22669]}, u'edge': {u'target': [], u'time': []}}, u'mouseout': {u'state': {u'target': [], u'time': []}, u'edge': {u'target': [], u'time': []}}}","[10, -5, 10]","[24356, 167, 106]",11.0,"[None, None, None]","[u'', -10, -5, -10, 5, 10, 5, 10, -5, 10, -5, 10, 5]",285630,20.0,27680.0,-8.549120811661888e+17,mouselab-mdp,0
"[20810, 21481, 22074]","[u'left', u'left', u'down']",train_inspect_cost,"[u'0', u'9', u'10', u'12']","{u'mouseover': {u'state': {u'target': [], u'time': []}, u'edge': {u'target': [], u'time': []}}, u'click': {u'state': {u'target': [u'1', u'9', u'5', u'6', u'8', u'7', u'2', u'4', u'3', u'10', u'11', u'12'], u'time': [1896, 4753, 5545, 6690, 7147, 7669, 15242, 16151, 16975, 18289, 18663, 19099]}, u'edge': {u'target': [], u'time': []}}, u'mouseout': {u'state': {u'target': [], u'time': []}, u'edge': {u'target': [], u'time': []}}}","[-10, -5, 10]","[20809, 138, 65]",-17.0,"[None, None, None]","[u'', -10, -5, 10, -10, -5, -10, 10, 10, -10, -5, -10, 10]",310564,21.0,23793.0,-7.342034422792319e+18,mouselab-mdp,0
"[8854, 9512, 10102]","[u'up', u'up', u'left']",train_inspect_cost,"[u'0', u'1', u'2', u'4']","{u'mouseover': {u'state': {u'target': [], u'time': []}, u'edge': {u'target': [], u'time': []}}, u'click': {u'state': {u'target': [u'1', u'2', u'4', u'3'], u'time': [1328, 3894, 5084, 6541]}, u'edge': {u'target': [], u'time': []}}, u'mouseout': {u'state': {u'target': [], u'time': []}, u'edge': {u'target': [], u'time': []}}}","[5, -10, 10]","[8852, 127, 67]",1.0,"[None, None, None]","[u'', 5, -10, 5, 10, 10, 5, 10, 10, 5, -10, -10, -10]",323001,22.0,11308.0,2.8266579347923113e+18,mouselab-mdp,0
"[8865, 9540, 10403]","[u'left', u'left', u'down']",train_inspect_cost,"[u'0', u'9', u'10', u'12']","{u'mouseover': {u'state': {u'target': [], u'time': []}, u'edge': {u'target': [], u'time': []}}, u'click': {u'state': {u'target': [u'9', u'10', u'11', u'12'], u'time': [3717, 5230, 5884, 7760]}, u'edge': {u'target': [], u'time': []}}, u'mouseout': {u'state': {u'target': [], u'time': []}, u'edge': {u'target': [], u'time': []}}}","[10, 10, 5]","[8863, 150, 329]",21.0,"[None, None, None]","[u'', -10, 10, -10, 5, -5, 5, -10, -10, 10, 10, -5, 5]",335828,23.0,11707.0,-4.940336971661e+18,mouselab-mdp,0
"[8158, 8784, 9412]","[u'right', u'right', u'down']",train_inspect_cost,"[u'0', u'5', u'6', u'8']","{u'mouseover': {u'state': {u'target': [], u'time': []}, u'edge': {u'target': [], u'time': []}}, u'click': {u'state': {u'target': [u'9', u'5', u'6', u'8'], u'time': [2389, 3390, 4628, 5537]}, u'edge': {u'target': [], u'time': []}}, u'mouseout': {u'state': {u'target': [], u'time': []}, u'edge': {u'target': [], u'time': []}}}","[10, 5, 10]","[8156, 98, 92]",21.0,"[None, None, None]","[u'', -10, -10, -10, -10, 10, 5, 5, 10, -10, -5, 5, 10]",347573,24.0,10632.0,-6.516136021771222e+18,mouselab-mdp,0
"[20912, 25667, 26950]","[u'left', u'left', u'up']",train_final,"[u'0', u'9', u'10', u'11']","{u'mouseover': {u'state': {u'target': [], u'time': []}, u'edge': {u'target': [], u'time': []}}, u'click': {u'state': {u'target': [u'1', u'9', u'5'], u'time': [16630, 18208, 18930]}, u'edge': {u'target': [], u'time': []}}, u'mouseout': {u'state': {u'target': [], u'time': []}, u'edge': {u'target': [], u'time': []}}}","[-5, -10, 5]","[20911, 4216, 750]",-13.0,"[None, None, None]","[u'', -10, -5, 10, -5, -10, 5, -10, 10, -5, -10, 5, 10]",378396,25.0,28518.0,8.491606456270313e+18,mouselab-mdp,0
"[11621, 12315, 13041]","[u'right', u'right', u'down']",train_final,"[u'0', u'5', u'6', u'8']","{u'mouseover': {u'state': {u'target': [], u'time': []}, u'edge': {u'target': [], u'time': []}}, u'click': {u'state': {u'target': [u'1', u'5', u'9', u'6', u'8'], u'time': [7578, 8198, 8860, 9918, 10486]}, u'edge': {u'target': [], u'time': []}}, u'mouseout': {u'state': {u'target': [], u'time': []}, u'edge': {u'target': [], u'time': []}}}","[10, 10, 10]","[11619, 164, 192]",25.0,"[None, None, None]","[u'', -5, 10, 10, 5, 10, 10, 10, 10, -10, 5, 5, 5]",393984,26.0,14475.0,-6.980762109714071e+18,mouselab-mdp,0
"[5203, 5929, 6553]","[u'right', u'right', u'down']",train_final,"[u'0', u'5', u'6', u'8']","{u'mouseover': {u'state': {u'target': [], u'time': []}, u'edge': {u'target': [], u'time': []}}, u'click': {u'state': {u'target': [u'5', u'6', u'7', u'8'], u'time': [755, 2388, 3305, 4059]}, u'edge': {u'target': [], u'time': []}}, u'mouseout': {u'state': {u'target': [], u'time': []}, u'edge': {u'target': [], u'time': []}}}","[10, -5, 10]","[5201, 194, 103]",11.0,"[None, None, None]","[u'', 10, 5, 10, -5, 10, -5, -10, 10, 5, -10, 10, 5]",422774,27.0,27650.0,3.6441571471145324e+18,mouselab-mdp,0
"[5466, 6157, 6823]","[u'left', u'left', u'up']",train_final,"[u'0', u'9', u'10', u'11']","{u'mouseover': {u'state': {u'target': [], u'time': []}, u'edge': {u'target': [], u'time': []}}, u'click': {u'state': {u'target': [u'9', u'10', u'11'], u'time': [2060, 3157, 4051]}, u'edge': {u'target': [], u'time': []}}, u'mouseout': {u'state': {u'target': [], u'time': []}, u'edge': {u'target': [], u'time': []}}}","[10, -5, 10]","[5464, 162, 129]",12.0,"[None, None, None]","[u'', -5, 5, 5, -5, 10, -10, 5, -5, 10, -5, 10, -5]",433756,28.0,9860.0,3.344637441394107e+17,mouselab-mdp,0
"[12063, 12797, 13490]","[u'left', u'left', u'down']",train_final,"[u'0', u'9', u'10', u'12']","{u'mouseover': {u'state': {u'target': [], u'time': []}, u'edge': {u'target': [], u'time': []}}, u'click': {u'state': {u'target': [u'5', u'1', u'9', u'10', u'12', u'11'], u'time': [4278, 5122, 5847, 9185, 9900, 10586]}, u'edge': {u'target': [], u'time': []}}, u'mouseout': {u'state': {u'target': [], u'time': []}, u'edge': {u'target': [], u'time': []}}}","[10, -10, 5]","[12062, 207, 166]",-1.0,"[None, None, None]","[u'', -5, 5, -5, -5, -10, -10, 10, -5, 10, -10, -5, 5]",449245,29.0,14363.0,8.077601249506434e+18,mouselab-mdp,0
"[7373, 8078, 8929]","[u'up', u'up', u'left']",test,"[u'0', u'1', u'2', u'4']","{u'mouseover': {u'state': {u'target': [], u'time': []}, u'edge': {u'target': [], u'time': []}}, u'click': {u'state': {u'target': [u'1', u'2', u'4'], u'time': [1199, 5032, 6065]}, u'edge': {u'target': [], u'time': []}}, u'mouseout': {u'state': {u'target': [], u'time': []}, u'edge': {u'target': [], u'time': []}}}","[5, 5, 10]","[7370, 180, 315]",17.0,"[None, None, None]","[u'', 5, 5, -5, 10, -5, -10, 10, 5, 10, 10, -10, -10]",480394,30.0,10620.0,5.938094249628056e+18,mouselab-mdp,0
"[4070, 4666, 5394]","[u'right', u'right', u'down']",test,"[u'0', u'5', u'6', u'8']","{u'mouseover': {u'state': {u'target': [], u'time': []}, u'edge': {u'target': [], u'time': []}}, u'click': {u'state': {u'target': [u'5', u'6', u'8'], u'time': [1335, 2319, 3002]}, u'edge': {u'target': [], u'time': []}}, u'mouseout': {u'state': {u'target': [], u'time': []}, u'edge': {u'target': [], u'time': []}}}","[10, 10, 10]","[4066, 61, 206]",27.0,"[None, None, None]","[u'', -5, -5, 5, 5, 10, 10, -5, 10, -10, -10, -10, 5]",490558,31.0,9008.0,4.176600634517876e+18,mouselab-mdp,0
[],[],test,[u'0'],"{u'mouseover': {u'state': {u'target': [], u'time': []}, u'edge': {u'target': [], u'time': []}}, u'click': {u'state': {u'target': [u'1', u'9', u'5', u'6', u'10', u'2'], u'time': [574, 1549, 2216, 4340, 5165, 6006]}, u'edge': {u'target': [], u'time': []}}, u'mouseout': {u'state': {u'target': [], u'time': []}, u'edge': {u'target': [], u'time': []}}}",[],[],-6.0,[],"[u'', -10, 5, 10, 10, -10, -5, 5, 10, -10, -10, -10, -5]",501852,32.0,10155.0,8.607347987074356e+18,mouselab-mdp,0
"[5255, 5881, 6542]","[u'right', u'right', u'down']",test,"[u'0', u'5', u'6', u'8']","{u'mouseover': {u'state': {u'target': [], u'time': []}, u'edge': {u'target': [], u'time': []}}, u'click': {u'state': {u'target': [u'1', u'5', u'6', u'8'], u'time': [1350, 2591, 3464, 4202]}, u'edge': {u'target': [], u'time': []}}, u'mouseout': {u'state': {u'target': [], u'time': []}, u'edge': {u'target': [], u'time': []}}}","[10, 10, 5]","[5254, 98, 128]",21.0,"[None, None, None]","[u'', -5, -5, 10, -10, 10, 10, 10, 5, 5, -5, -10, -5]",512649,33.0,9644.0,-6.412333170858073e+18,mouselab-mdp,0
"[4676, 5407, 6140]","[u'left', u'left', u'down']",test,"[u'0', u'9', u'10', u'12']","{u'mouseover': {u'state': {u'target': [], u'time': []}, u'edge': {u'target': [], u'time': []}}, u'click': {u'state': {u'target': [u'9', u'10', u'12', u'11'], u'time': [852, 1823, 2538, 3603]}, u'edge': {u'target': [], u'time': []}}, u'mouseout': {u'state': {u'target': [], u'time': []}, u'edge': {u'target': [], u'time': []}}}","[10, 5, 5]","[4674, 198, 199]",16.0,"[None, None, None]","[u'', 5, 5, -5, 10, 5, -10, -5, 10, 10, 5, 5, 5]",522170,34.0,8359.0,5.627389738084794e+17,mouselab-mdp,0
"[8170, 8866, 9709]","[u'left', u'left', u'down']",test,"[u'0', u'9', u'10', u'12']","{u'mouseover': {u'state': {u'target': [], u'time': []}, u'edge': {u'target': [], u'time': []}}, u'click': {u'state': {u'target': [u'5', u'1', u'9', u'2', u'10'], u'time': [2406, 3300, 4054, 6293, 7109]}, u'edge': {u'target': [], u'time': []}}, u'mouseout': {u'state': {u'target': [], u'time': []}, u'edge': {u'target': [], u'time': []}}}","[5, 10, -10]","[8168, 159, 319]",0.0,"[None, None, None]","[u'', 5, -10, 10, -10, -5, 10, -10, 5, 5, 10, -5, -10]",534891,35.0,11596.0,-5.616229570178317e+18,mouselab-mdp,0
"[4649, 5318, 5939]","[u'left', u'left', u'up']",test,"[u'0', u'9', u'10', u'11']","{u'mouseover': {u'state': {u'target': [], u'time': []}, u'edge': {u'target': [], u'time': []}}, u'click': {u'state': {u'target': [u'9', u'10', u'11'], u'time': [1163, 2735, 3612]}, u'edge': {u'target': [], u'time': []}}, u'mouseout': {u'state': {u'target': [], u'time': []}, u'edge': {u'target': [], u'time': []}}}","[10, 5, 10]","[4646, 135, 90]",22.0,"[None, None, None]","[u'', -10, -5, 5, -5, -10, 5, 5, 5, 10, 5, 10, -10]",545590,36.0,9571.0,-5.4249062934784986e+17,mouselab-mdp,0
"[5266, 5911, 6540]","[u'up', u'up', u'left']",test,"[u'0', u'1', u'2', u'4']","{u'mouseover': {u'state': {u'target': [], u'time': []}, u'edge': {u'target': [], u'time': []}}, u'click': {u'state': {u'target': [u'9', u'1', u'2', u'3'], u'time': [647, 1461, 2457, 3113]}, u'edge': {u'target': [], u'time': []}}, u'mouseout': {u'state': {u'target': [], u'time': []}, u'edge': {u'target': [], u'time': []}}}","[5, 10, -10]","[5264, 110, 106]",1.0,"[None, None, None]","[u'', 5, 10, -10, -10, -10, 10, 5, 5, -5, 10, -5, 10]",556560,37.0,9843.0,-7.119666741695585e+18,mouselab-mdp,0
"[7075, 7668, 8970]","[u'right', u'right', u'down']",test,"[u'0', u'5', u'6', u'8']","{u'mouseover': {u'state': {u'target': [], u'time': []}, u'edge': {u'target': [], u'time': []}}, u'click': {u'state': {u'target': [u'5', u'1', u'9', u'6', u'8'], u'time': [737, 1622, 2959, 4818, 5947]}, u'edge': {u'target': [], u'time': []}}, u'mouseout': {u'state': {u'target': [], u'time': []}, u'edge': {u'target': [], u'time': []}}}","[5, 5, 10]","[7072, 63, 765]",15.0,"[None, None, None]","[u'', -5, 10, -5, 10, 5, 5, -10, 10, -5, 5, -5, -10]",567916,38.0,10204.0,-1.6198589960716582e+18,mouselab-mdp,0
"[11985, 12613, 13189]","[u'left', u'left', u'down']",test,"[u'0', u'9', u'10', u'12']","{u'mouseover': {u'state': {u'target': [], u'time': []}, u'edge': {u'target': [], u'time': []}}, u'click': {u'state': {u'target': [u'5', u'1', u'9', u'2', u'10', u'3', u'4', u'12'], u'time': [3743, 4541, 5305, 7117, 7940, 9093, 9798, 10709]}, u'edge': {u'target': [], u'time': []}}, u'mouseout': {u'state': {u'target': [], u'time': []}, u'edge': {u'target': [], u'time': []}}}","[10, 5, 10]","[11983, 96, 40]",17.0,"[None, None, None]","[u'', 10, 5, -10, 5, -5, 5, 10, -5, 10, 5, -10, 10]",583685,39.0,14635.0,-6.457953215426968e+18,mouselab-mdp,0
[],[],test,[u'0'],"{u'mouseover': {u'state': {u'target': [], u'time': []}, u'edge': {u'target': [], u'time': []}}, u'click': {u'state': {u'target': [u'1', u'2', u'4', u'3', u'9', u'10', u'12'], u'time': [1276, 2340, 3279, 4050, 6935, 7627, 8233]}, u'edge': {u'target': [], u'time': []}}, u'mouseout': {u'state': {u'target': [], u'time': []}, u'edge': {u'target': [], u'time': []}}}",[],[],-7.0,[],"[u'', 10, -10, 5, 5, 5, 5, -5, 5, 10, -5, 10, -10]",595015,40.0,10182.0,-6.577176273229301e+18,mouselab-mdp,0
"[6755, 7692, 8369]","[u'right', u'right', u'down']",test,"[u'0', u'5', u'6', u'8']","{u'mouseover': {u'state': {u'target': [], u'time': []}, u'edge': {u'target': [], u'time': []}}, u'click': {u'state': {u'target': [u'1', u'9', u'5', u'6', u'8'], u'time': [842, 2231, 2917, 3787, 5421]}, u'edge': {u'target': [], u'time': []}}, u'mouseout': {u'state': {u'target': [], u'time': []}, u'edge': {u'target': [], u'time': []}}}","[10, -10, 5]","[6753, 398, 143]",0.0,"[None, None, None]","[u'', -5, 5, 10, -10, 10, -10, 10, 5, -5, -10, 5, 10]",605847,41.0,9708.0,4.754602433487655e+18,mouselab-mdp,0
"[7107, 7758, 8433]","[u'up', u'up', u'left']",test,"[u'0', u'1', u'2', u'4']","{u'mouseover': {u'state': {u'target': [], u'time': []}, u'edge': {u'target': [], u'time': []}}, u'click': {u'state': {u'target': [u'1', u'2', u'4'], u'time': [1956, 4358, 5246]}, u'edge': {u'target': [], u'time': []}}, u'mouseout': {u'state': {u'target': [], u'time': []}, u'edge': {u'target': [], u'time': []}}}","[5, 5, 5]","[7105, 128, 139]",12.0,"[None, None, None]","[u'', 5, 5, -5, 5, 10, -10, -10, 10, 5, 5, -10, -5]",616398,42.0,9428.0,-5.368470092922741e+18,mouselab-mdp,0
[],[],test,[u'0'],"{u'mouseover': {u'state': {u'target': [], u'time': []}, u'edge': {u'target': [], u'time': []}}, u'click': {u'state': {u'target': [u'1', u'2', u'3', u'4', u'5'], u'time': [903, 1632, 2239, 3165, 5397]}, u'edge': {u'target': [], u'time': []}}, u'mouseout': {u'state': {u'target': [], u'time': []}, u'edge': {u'target': [], u'time': []}}}",[],[],-5.0,[],"[u'', 10, -5, -10, -5, 5, 5, 10, -10, -10, 5, 10, -10]",625541,43.0,8011.0,-8.642469369171842e+18,mouselab-mdp,0
"[4702, 5370, 7002]","[u'right', u'right', u'up']",test,"[u'0', u'5', u'6', u'7']","{u'mouseover': {u'state': {u'target': [], u'time': []}, u'edge': {u'target': [], u'time': []}}, u'click': {u'state': {u'target': [u'1', u'5', u'6', u'8'], u'time': [938, 1982, 2821, 3707]}, u'edge': {u'target': [], u'time': []}}, u'mouseout': {u'state': {u'target': [], u'time': []}, u'edge': {u'target': [], u'time': []}}}","[10, 5, -10]","[4701, 133, 1100]",1.0,"[None, None, None]","[u'', -5, 10, 5, -10, 10, 5, -10, -5, 5, 10, -10, 10]",636330,44.0,9652.0,-9.148803387183103e+18,mouselab-mdp,0
"[5027, 5644, 6264]","[u'left', u'left', u'down']",test,"[u'0', u'9', u'10', u'12']","{u'mouseover': {u'state': {u'target': [], u'time': []}, u'edge': {u'target': [], u'time': []}}, u'click': {u'state': {u'target': [u'9', u'10', u'12'], u'time': [2060, 3070, 3724]}, u'edge': {u'target': [], u'time': []}}, u'mouseout': {u'state': {u'target': [], u'time': []}, u'edge': {u'target': [], u'time': []}}}","[5, -5, 10]","[5025, 95, 98]",7.0,"[None, None, None]","[u'', 10, 10, 5, 5, -10, -5, -5, -10, 5, -5, 10, 10]",648326,45.0,10862.0,8.086241799233455e+18,mouselab-mdp,0
"[7682, 8304, 9683]","[u'right', u'right', u'down']",test,"[u'0', u'5', u'6', u'8']","{u'mouseover': {u'state': {u'target': [], u'time': []}, u'edge': {u'target': [], u'time': []}}, u'click': {u'state': {u'target': [u'9', u'10', u'11', u'5'], u'time': [1329, 2487, 3304, 5185]}, u'edge': {u'target': [], u'time': []}}, u'mouseout': {u'state': {u'target': [], u'time': []}, u'edge': {u'target': [], u'time': []}}}","[10, 10, -10]","[7680, 89, 852]",6.0,"[None, None, None]","[u'', 10, 5, 10, 5, 10, 10, -5, -10, 5, -5, -10, 5]",660728,46.0,11247.0,4.3967390784059443e+18,mouselab-mdp,0
"[5141, 5900, 7039]","[u'up', u'up', u'left']",test,"[u'0', u'1', u'2', u'4']","{u'mouseover': {u'state': {u'target': [], u'time': []}, u'edge': {u'target': [], u'time': []}}, u'click': {u'state': {u'target': [u'1', u'2', u'3'], u'time': [1257, 2326, 3190]}, u'edge': {u'target': [], u'time': []}}, u'mouseout': {u'state': {u'target': [], u'time': []}, u'edge': {u'target': [], u'time': []}}}","[10, -5, 5]","[5138, 230, 605]",7.0,"[None, None, None]","[u'', 10, -5, 5, 5, 10, 5, 10, -10, 10, -10, -5, 10]",670493,47.0,8649.0,-3.683992464584856e+18,mouselab-mdp,0
"[8343, 9168, 9965]","[u'right', u'right', u'down']",test,"[u'0', u'5', u'6', u'8']","{u'mouseover': {u'state': {u'target': [], u'time': []}, u'edge': {u'target': [], u'time': []}}, u'click': {u'state': {u'target': [u'5', u'6'], u'time': [3717, 5436]}, u'edge': {u'target': [], u'time': []}}, u'mouseout': {u'state': {u'target': [], u'time': []}, u'edge': {u'target': [], u'time': []}}}","[10, 5, 10]","[8341, 288, 268]",23.0,"[None, None, None]","[u'', 5, 10, -10, 10, 10, 5, -5, 10, -10, -5, 10, -5]",683218,48.0,11603.0,8.737010464064418e+18,mouselab-mdp,0
"[6757, 7504, 8586]","[u'right', u'right', u'down']",test,"[u'0', u'5', u'6', u'8']","{u'mouseover': {u'state': {u'target': [], u'time': []}, u'edge': {u'target': [], u'time': []}}, u'click': {u'state': {u'target': [u'5', u'1', u'9'], u'time': [1620, 2850, 4008]}, u'edge': {u'target': [], u'time': []}}, u'mouseout': {u'state': {u'target': [], u'time': []}, u'edge': {u'target': [], u'time': []}}}","[-5, 5, -10]","[6755, 212, 561]",-13.0,"[None, None, None]","[u'', -5, 10, 5, 5, -5, 5, -5, -10, 5, -5, 5, 10]",694406,49.0,10053.0,-5.812682556850434e+18,mouselab-mdp,0
"[25125, 29848, 30838]","[u'left', u'left', u'down']",train_basic,"[u'0', u'9', u'10', u'12']","{u'mouseover': {u'state': {u'target': [], u'time': []}, u'edge': {u'target': [], u'time': []}}, u'click': {u'state': {u'target': [], u'time': []}, u'edge': {u'target': [], u'time': []}}, u'mouseout': {u'state': {u'target': [], u'time': []}, u'edge': {u'target': [], u'time': []}}}","[5, -5, 5]","[25123, 4218, 481]",5.0,"[None, None, None]","[u'', -10, -5, -5, 5, -10, -10, -10, -10, 5, -5, -5, 5]",33635,0.0,33504.0,-9.136662483728007e+18,mouselab-mdp,1
"[8200, 9055, 11394]","[u'up', u'up', u'left']",train_basic,"[u'0', u'1', u'2', u'4']","{u'mouseover': {u'state': {u'target': [], u'time': []}, u'edge': {u'target': [], u'time': []}}, u'click': {u'state': {u'target': [], u'time': []}, u'edge': {u'target': [], u'time': []}}, u'mouseout': {u'state': {u'target': [], u'time': []}, u'edge': {u'target': [], u'time': []}}}","[-10, 10, 5]","[8199, 348, 1837]",5.0,"[None, None, None]","[u'', -10, 10, -5, 5, 5, -10, -10, -10, -10, -5, -10, -10]",48282,1.0,13566.0,6.612009546738605e+18,mouselab-mdp,1
"[25845, 26542, 27386]","[u'right', u'right', u'up']",train_basic,"[u'0', u'5', u'6', u'7']","{u'mouseover': {u'state': {u'target': [], u'time': []}, u'edge': {u'target': [], u'time': []}}, u'click': {u'state': {u'target': [], u'time': []}, u'edge': {u'target': [], u'time': []}}, u'mouseout': {u'state': {u'target': [], u'time': []}, u'edge': {u'target': [], u'time': []}}}","[10, -10, 10]","[25844, 195, 344]",10.0,"[None, None, None]","[u'', -5, 5, 10, -10, 10, -10, 10, 5, -5, -10, 5, 10]",78510,2.0,29151.0,4.754602433487655e+18,mouselab-mdp,1
"[3416, 4170, 4912]","[u'up', u'up', u'right']",train_basic,"[u'0', u'1', u'2', u'3']","{u'mouseover': {u'state': {u'target': [], u'time': []}, u'edge': {u'target': [], u'time': []}}, u'click': {u'state': {u'target': [], u'time': []}, u'edge': {u'target': [], u'time': []}}, u'mouseout': {u'state': {u'target': [], u'time': []}, u'edge': {u'target': [], u'time': []}}}","[10, 5, 10]","[3415, 259, 252]",25.0,"[None, None, None]","[u'', 10, 5, 10, -5, 10, -5, -10, 10, 5, -10, 10, 5]",85745,3.0,6150.0,3.6441571471145324e+18,mouselab-mdp,1
"[2449, 3225, 4339]","[u'right', u'right', u'down']",train_basic,"[u'0', u'5', u'6', u'8']","{u'mouseover': {u'state': {u'target': [], u'time': []}, u'edge': {u'target': [], u'time': []}}, u'click': {u'state': {u'target': [], u'time': []}, u'edge': {u'target': [], u'time': []}}, u'mouseout': {u'state': {u'target': [], u'time': []}, u'edge': {u'target': [], u'time': []}}}","[10, 5, 5]","[2446, 274, 620]",20.0,"[None, None, None]","[u'', 5, -10, -5, 10, 10, 5, -10, 5, 5, -5, -5, 5]",93045,4.0,6228.0,8.034619116489217e+18,mouselab-mdp,1
"[7608, 8394, 9148]","[u'up', u'up', u'left']",train_basic,"[u'0', u'1', u'2', u'4']","{u'mouseover': {u'state': {u'target': [], u'time': []}, u'edge': {u'target': [], u'time': []}}, u'click': {u'state': {u'target': [], u'time': []}, u'edge': {u'target': [], u'time': []}}, u'mouseout': {u'state': {u'target': [], u'time': []}, u'edge': {u'target': [], u'time': []}}}","[5, 10, 10]","[7606, 288, 256]",25.0,"[None, None, None]","[u'', 5, 10, 10, 10, -10, -10, 5, 10, 10, 5, 10, 5]",104621,5.0,10508.0,2.0301359460781466e+18,mouselab-mdp,1
"[3548, 4155, 4875]","[u'left', u'left', u'up']",train_basic,"[u'0', u'9', u'10', u'11']","{u'mouseover': {u'state': {u'target': [], u'time': []}, u'edge': {u'target': [], u'time': []}}, u'click': {u'state': {u'target': [], u'time': []}, u'edge': {u'target': [], u'time': []}}, u'mouseout': {u'state': {u'target': [], u'time': []}, u'edge': {u'target': [], u'time': []}}}","[10, 5, 5]","[3545, 107, 227]",20.0,"[None, None, None]","[u'', 10, 10, -10, -10, -10, 10, -10, -5, 10, 5, 5, -5]",111879,6.0,6192.0,1.2413699960697694e+17,mouselab-mdp,1
"[8111, 9463, 10227]","[u'up', u'up', u'right']",train_basic,"[u'0', u'1', u'2', u'3']","{u'mouseover': {u'state': {u'target': [], u'time': []}, u'edge': {u'target': [], u'time': []}}, u'click': {u'state': {u'target': [], u'time': []}, u'edge': {u'target': [], u'time': []}}, u'mouseout': {u'state': {u'target': [], u'time': []}, u'edge': {u'target': [], u'time': []}}}","[-5, 10, 5]","[8109, 841, 269]",10.0,"[None, None, None]","[u'', -5, 10, 5, 5, -5, 5, -5, -10, 5, -5, 5, 10]",124523,7.0,11576.0,-5.812682556850434e+18,mouselab-mdp,1
"[3520, 4116, 4780]","[u'left', u'left', u'down']",train_basic,"[u'0', u'9', u'10', u'12']","{u'mouseover': {u'state': {u'target': [], u'time': []}, u'edge': {u'target': [], u'time': []}}, u'click': {u'state': {u'target': [], u'time': []}, u'edge': {u'target': [], u'time': []}}, u'mouseout': {u'state': {u'target': [], u'time': []}, u'edge': {u'target': [], u'time': []}}}","[10, 5, 10]","[3518, 92, 174]",25.0,"[None, None, None]","[u'', 10, 5, -10, 5, -5, 5, 10, -5, 10, 5, -10, 10]",131566,8.0,5972.0,-6.457953215426968e+18,mouselab-mdp,1
"[3092, 3687, 4284]","[u'left', u'left', u'up']",train_basic,"[u'0', u'9', u'10', u'11']","{u'mouseover': {u'state': {u'target': [], u'time': []}, u'edge': {u'target': [], u'time': []}}, u'click': {u'state': {u'target': [], u'time': []}, u'edge': {u'target': [], u'time': []}}, u'mouseout': {u'state': {u'target': [], u'time': []}, u'edge': {u'target': [], u'time': []}}}","[10, 10, 10]","[3091, 101, 90]",30.0,"[None, None, None]","[u'', -5, 10, 5, 10, 5, 5, -5, 5, 10, 10, 10, 5]",138057,9.0,5420.0,-6.877572132778754e+18,mouselab-mdp,1
"[10807, 11740, 12843]","[u'up', u'up', u'left']",train_hidden,"[u'0', u'1', u'2', u'4']","{u'mouseover': {u'state': {u'target': [], u'time': []}, u'edge': {u'target': [], u'time': []}}, u'click': {u'state': {u'target': [], u'time': []}, u'edge': {u'target': [], u'time': []}}, u'mouseout': {u'state': {u'target': [], u'time': []}, u'edge': {u'target': [], u'time': []}}}","[-5, -10, 5]","[10806, 427, 612]",-10.0,"[None, None, None]","[u'', -5, -10, 5, 5, -5, -10, 5, -5, 10, -5, 5, -10]",156203,10.0,14980.0,-8.166458029472813e+18,mouselab-mdp,1
"[430, 1195, 1904]","[u'up', u'up', u'left']",train_hidden,"[u'0', u'1', u'2', u'4']","{u'mouseover': {u'state': {u'target': [], u'time': []}, u'edge': {u'target': [], u'time': []}}, u'click': {u'state': {u'target': [], u'time': []}, u'edge': {u'target': [], u'time': []}}, u'mouseout': {u'state': {u'target': [], u'time': []}, u'edge': {u'target': [], u'time': []}}}","[-10, 10, -5]","[429, 266, 207]",-5.0,"[None, None, None]","[u'', -10, 10, 10, -5, -5, 10, -5, -10, 10, 10, -5, 10]",161119,11.0,3849.0,-4.1003180650031995e+18,mouselab-mdp,1
"[340, 1026, 1768]","[u'up', u'up', u'left']",train_hidden,"[u'0', u'1', u'2', u'4']","{u'mouseover': {u'state': {u'target': [], u'time': []}, u'edge': {u'target': [], u'time': []}}, u'click': {u'state': {u'target': [], u'time': []}, u'edge': {u'target': [], u'time': []}}, u'mouseout': {u'state': {u'target': [], u'time': []}, u'edge': {u'target': [], u'time': []}}}","[-5, -5, -10]","[337, 193, 252]",-20.0,"[None, None, None]","[u'', -5, -5, 10, -10, 10, 10, 10, 5, 5, -5, -10, -5]",165192,12.0,3005.0,-6.412333170858073e+18,mouselab-mdp,1
"[1659, 2277, 2930]","[u'up', u'up', u'left']",train_hidden,"[u'0', u'1', u'2', u'4']","{u'mouseover': {u'state': {u'target': [], u'time': []}, u'edge': {u'target': [], u'time': []}}, u'click': {u'state': {u'target': [], u'time': []}, u'edge': {u'target': [], u'time': []}}, u'mouseout': {u'state': {u'target': [], u'time': []}, u'edge': {u'target': [], u'time': []}}}","[-5, 10, 5]","[1657, 119, 155]",10.0,"[None, None, None]","[u'', -5, 10, 10, 5, 10, 10, 10, 10, -10, 5, 5, 5]",170649,13.0,4392.0,-6.980762109714071e+18,mouselab-mdp,1
"[1491, 2131, 2964]","[u'up', u'up', u'left']",train_hidden,"[u'0', u'1', u'2', u'4']","{u'mouseover': {u'state': {u'target': [], u'time': []}, u'edge': {u'target': [], u'time': []}}, u'click': {u'state': {u'target': [], u'time': []}, u'edge': {u'target': [], u'time': []}}, u'mouseout': {u'state': {u'target': [], u'time': []}, u'edge': {u'target': [], u'time': []}}}","[10, -5, -5]","[1490, 138, 338]",0.0,"[None, None, None]","[u'', 10, -5, -10, -5, 5, 5, 10, -10, -10, 5, 10, -10]",176104,14.0,4392.0,-8.642469369171842e+18,mouselab-mdp,1
"[54, 12419, 13701]","[u'right', u'right', u'down']",train_inspector,"[u'0', u'5', u'6', u'8']","{u'mouseover': {u'state': {u'target': [], u'time': []}, u'edge': {u'target': [], u'time': []}}, u'click': {u'state': {u'target': [], u'time': []}, u'edge': {u'target': [], u'time': []}}, u'mouseout': {u'state': {u'target': [], u'time': []}, u'edge': {u'target': [], u'time': []}}}","[-5, -10, 5]","[53, 11862, 792]",-10.0,"[None, None, None]","[u'', 5, 5, -5, 10, -5, -10, 10, 5, 10, 10, -10, -10]",194667,15.0,15658.0,5.938094249628056e+18,mouselab-mdp,1
"[27556, 28253, 28917]","[u'up', u'up', u'right']",train_inspector,"[u'0', u'1', u'2', u'3']","{u'mouseover': {u'state': {u'target': [], u'time': []}, u'edge': {u'target': [], u'time': []}}, u'click': {u'state': {u'target': [u'1', u'5', u'9', u'10', u'12', u'2', u'3', u'4', u'6', u'7', u'8', u'11'], u'time': [8446, 9920, 11021, 12046, 13912, 17491, 19325, 20315, 21405, 22082, 22880, 24026]}, u'edge': {u'target': [], u'time': []}}, u'mouseout': {u'state': {u'target': [], u'time': []}, u'edge': {u'target': [], u'time': []}}}","[10, 10, 10]","[27554, 194, 174]",30.0,"[None, None, None]","[u'', 10, 10, 10, 10, -10, -10, -10, 5, 10, 10, 5, 5]",226212,16.0,30469.0,1.1933479039128937e+18,mouselab-mdp,1
"[22033, 22900, 23507]","[u'right', u'right', u'up']",train_inspector,"[u'0', u'5', u'6', u'7']","{u'mouseover': {u'state': {u'target': [], u'time': []}, u'edge': {u'target': [], u'time': []}}, u'click': {u'state': {u'target': [u'5', u'1', u'9', u'10', u'11', u'12', u'2', u'3', u'4', u'6', u'7', u'8'], u'time': [6119, 8211, 9617, 11270, 12238, 13105, 14725, 15433, 16233, 17977, 18729, 19640]}, u'edge': {u'target': [], u'time': []}}, u'mouseout': {u'state': {u'target': [], u'time': []}, u'edge': {u'target': [], u'time': []}}}","[10, 5, 10]","[22031, 378, 118]",25.0,"[None, None, None]","[u'', -5, -10, 10, 5, 10, 5, 10, 5, 5, -10, -5, -10]",251908,17.0,24632.0,3.569831271632112e+18,mouselab-mdp,1
"[14649, 15256, 15853]","[u'up', u'up', u'left']",train_inspector,"[u'0', u'1', u'2', u'4']","{u'mouseover': {u'state': {u'target': [], u'time': []}, u'edge': {u'target': [], u'time': []}}, u'click': {u'state': {u'target': [u'5', u'6', u'8', u'7', u'1', u'2', u'3', u'4', u'9', u'10', u'12', u'11'], u'time': [2570, 3325, 4099, 4977, 5821, 6552, 7204, 9060, 10118, 10839, 11504, 12221]}, u'edge': {u'target': [], u'time': []}}, u'mouseout': {u'state': {u'target': [], u'time': []}, u'edge': {u'target': [], u'time': []}}}","[5, 5, 5]","[14648, 101, 98]",15.0,"[None, None, None]","[u'', 5, 5, -10, 5, -10, 10, 5, -10, 10, -10, 10, 5]",269570,18.0,16595.0,7.494910043448008e+18,mouselab-mdp,1
"[13672, 14168, 14819]","[u'up', u'up', u'right']",train_inspector,"[u'0', u'1', u'2', u'3']","{u'mouseover': {u'state': {u'target': [], u'time': []}, u'edge': {u'target': [], u'time': []}}, u'click': {u'state': {u'target': [u'9', u'10', u'1', u'2', u'5', u'6', u'7', u'3', u'4', u'8'], u'time': [1390, 2090, 4922, 5653, 6553, 7274, 8983, 9760, 10672, 12179]}, u'edge': {u'target': [], u'time': []}}, u'mouseout': {u'state': {u'target': [], u'time': []}, u'edge': {u'target': [], u'time': []}}}","[-10, 10, 5]","[13671, 1, 136]",5.0,"[None, None, None]","[u'', -10, 10, 5, 5, -5, -10, -10, -5, -10, -10, 5, 5]",286534,19.0,15898.0,3.4622403069545196e+18,mouselab-mdp,1
"[23485, 24069, 24688]","[u'up', u'up', u'right']",train_inspect_cost,"[u'0', u'1', u'2', u'3']","{u'mouseover': {u'state': {u'target': [], u'time': []}, u'edge': {u'target': [], u'time': []}}, u'click': {u'state': {u'target': [u'1', u'5', u'9', u'2', u'6', u'10'], u'time': [10595, 14510, 17592, 18908, 20158, 21306]}, u'edge': {u'target': [], u'time': []}}, u'mouseout': {u'state': {u'target': [], u'time': []}, u'edge': {u'target': [], u'time': []}}}","[-10, 5, 10]","[23482, 90, 124]",-1.0,"[None, None, None]","[u'', -10, 5, 10, 10, -10, -5, 5, 10, -10, -10, -10, -5]",315999,20.0,26578.0,8.607347987074356e+18,mouselab-mdp,1
"[6023, 6742, 10882]","[u'left', u'left', u'up']",train_inspect_cost,"[u'0', u'9', u'10', u'11']","{u'mouseover': {u'state': {u'target': [], u'time': []}, u'edge': {u'target': [], u'time': []}}, u'click': {u'state': {u'target': [u'1', u'5', u'9'], u'time': [2955, 4081, 4979]}, u'edge': {u'target': [], u'time': []}}, u'mouseout': {u'state': {u'target': [], u'time': []}, u'edge': {u'target': [], u'time': []}}}","[10, -10, -10]","[6021, 224, 3646]",-13.0,"[None, None, None]","[u'', -5, 10, 10, 5, -5, 5, -10, 10, 10, -10, -10, -10]",329679,21.0,12615.0,7.801448459840969e+18,mouselab-mdp,1
"[636, 1646, 2434]","[u'up', u'up', u'right']",train_inspect_cost,"[u'0', u'1', u'2', u'3']","{u'mouseover': {u'state': {u'target': [], u'time': []}, u'edge': {u'target': [], u'time': []}}, u'click': {u'state': {u'target': [], u'time': []}, u'edge': {u'target': [], u'time': []}}, u'mouseout': {u'state': {u'target': [], u'time': []}, u'edge': {u'target': [], u'time': []}}}","[-5, 5, 5]","[633, 510, 297]",5.0,"[None, None, None]","[u'', -5, 5, 5, 5, -10, 10, 10, 5, -10, 10, -10, -5]",335349,22.0,4605.0,-8.511375057859465e+18,mouselab-mdp,1
"[523, 1457, 2402]","[u'right', u'right', u'up']",train_inspect_cost,"[u'0', u'5', u'6', u'7']","{u'mouseover': {u'state': {u'target': [], u'time': []}, u'edge': {u'target': [], u'time': []}}, u'click': {u'state': {u'target': [], u'time': []}, u'edge': {u'target': [], u'time': []}}, u'mouseout': {u'state': {u'target': [], u'time': []}, u'edge': {u'target': [], u'time': []}}}","[5, -10, -10]","[522, 432, 436]",-15.0,"[None, None, None]","[u'', -5, -10, -10, -5, 5, -10, -10, 10, -5, 5, -10, -10]",340006,23.0,3594.0,1.960338415622663e+18,mouselab-mdp,1
"[690, 1601, 2681]","[u'left', u'left', u'up']",train_inspect_cost,"[u'0', u'9', u'10', u'11']","{u'mouseover': {u'state': {u'target': [], u'time': []}, u'edge': {u'target': [], u'time': []}}, u'click': {u'state': {u'target': [], u'time': []}, u'edge': {u'target': [], u'time': []}}, u'mouseout': {u'state': {u'target': [], u'time': []}, u'edge': {u'target': [], u'time': []}}}","[5, -5, -10]","[689, 408, 587]",-10.0,"[None, None, None]","[u'', 5, 5, -5, 10, 5, -5, 5, 5, 5, -5, -10, -5]",345901,24.0,4829.0,7.374792400222714e+18,mouselab-mdp,1
"[35362, 36195, 37027]","[u'right', u'right', u'down']",train_final,"[u'0', u'5', u'6', u'8']","{u'mouseover': {u'state': {u'target': [], u'time': []}, u'edge': {u'target': [], u'time': []}}, u'click': {u'state': {u'target': [u'1', u'2', u'4', u'3', u'5', u'6', u'8'], u'time': [18828, 22911, 24104, 27401, 30056, 33126, 34038]}, u'edge': {u'target': [], u'time': []}}, u'mouseout': {u'state': {u'target': [], u'time': []}, u'edge': {u'target': [], u'time': []}}}","[10, 5, 10]","[35360, 332, 330]",18.0,"[None, None, None]","[u'', 5, -10, 5, 10, 10, 5, 10, 10, 5, -10, -10, -10]",388854,25.0,39952.0,2.8266579347923113e+18,mouselab-mdp,1
"[19354, 20050, 20702]","[u'right', u'right', u'up']",train_final,"[u'0', u'5', u'6', u'7']","{u'mouseover': {u'state': {u'target': [], u'time': []}, u'edge': {u'target': [], u'time': []}}, u'click': {u'state': {u'target': [u'1', u'2', u'9', u'10', u'5', u'6', u'7'], u'time': [9323, 10817, 12674, 13766, 14856, 15464, 17895]}, u'edge': {u'target': [], u'time': []}}, u'mouseout': {u'state': {u'target': [], u'time': []}, u'edge': {u'target': [], u'time': []}}}","[10, 5, 10]","[19353, 193, 162]",18.0,"[None, None, None]","[u'', 10, -5, 5, 5, 10, 5, 10, -10, 10, -10, -5, 10]",412142,26.0,22222.0,-3.683992464584856e+18,mouselab-mdp,1
"[9998, 10639, 11302]","[u'up', u'up', u'left']",train_final,"[u'0', u'1', u'2', u'4']","{u'mouseover': {u'state': {u'target': [], u'time': []}, u'edge': {u'target': [], u'time': []}}, u'click': {u'state': {u'target': [u'1', u'9', u'5', u'2', u'3'], u'time': [2126, 3284, 4960, 6761, 7672]}, u'edge': {u'target': [], u'time': []}}, u'mouseout': {u'state': {u'target': [], u'time': []}, u'edge': {u'target': [], u'time': []}}}","[-5, 10, -10]","[9997, 145, 158]",-10.0,"[None, None, None]","[u'', -5, 10, 5, -10, -10, 5, -10, -10, -10, 10, 5, 10]",426001,27.0,12798.0,-2.935497867899124e+18,mouselab-mdp,1
"[6308, 6838, 7501]","[u'right', u'right', u'down']",train_final,"[u'0', u'5', u'6', u'8']","{u'mouseover': {u'state': {u'target': [], u'time': []}, u'edge': {u'target': [], u'time': []}}, u'click': {u'state': {u'target': [u'9', u'5', u'6', u'7'], u'time': [1746, 3242, 4275, 5086]}, u'edge': {u'target': [], u'time': []}}, u'mouseout': {u'state': {u'target': [], u'time': []}, u'edge': {u'target': [], u'time': []}}}","[10, -5, 5]","[6307, 36, 166]",6.0,"[None, None, None]","[u'', 10, 10, -5, 5, 10, -5, -5, 5, -10, 5, -5, 10]",436261,28.0,9199.0,5.48878703662108e+18,mouselab-mdp,1
"[10721, 11823, 12498]","[u'right', u'right', u'down']",train_final,"[u'0', u'5', u'6', u'8']","{u'mouseover': {u'state': {u'target': [], u'time': []}, u'edge': {u'target': [], u'time': []}}, u'click': {u'state': {u'target': [u'1', u'2', u'5', u'6', u'8', u'7'], u'time': [881, 2027, 5336, 7237, 8576, 9780]}, u'edge': {u'target': [], u'time': []}}, u'mouseout': {u'state': {u'target': [], u'time': []}, u'edge': {u'target': [], u'time': []}}}","[10, 10, 5]","[10719, 604, 171]",19.0,"[None, None, None]","[u'', -5, 5, 5, 5, 10, 10, -10, 5, -5, 10, -10, -5]",450932,29.0,13601.0,9.142111453001215e+18,mouselab-mdp,1
[],[],test,[u'0'],"{u'mouseover': {u'state': {u'target': [], u'time': []}, u'edge': {u'target': [], u'time': []}}, u'click': {u'state': {u'target': [u'1', u'2'], u'time': [2123, 5349]}, u'edge': {u'target': [], u'time': []}}, u'mouseout': {u'state': {u'target': [], u'time': []}, u'edge': {u'target': [], u'time': []}}}",[],[],-2.0,[],"[u'', 5, -5, -10, -5, -5, -5, 10, -5, 10, 5, 10, -5]",504695,30.0,11657.0,1.1475102415505539e+18,mouselab-mdp,1
[5401],[u'up'],test,"[u'0', u'1']","{u'mouseover': {u'state': {u'target': [], u'time': []}, u'edge': {u'target': [], u'time': []}}, u'click': {u'state': {u'target': [u'1', u'9', u'5'], u'time': [2402, 3244, 4077]}, u'edge': {u'target': [], u'time': []}}, u'mouseout': {u'state': {u'target': [], u'time': []}, u'edge': {u'target': [], u'time': []}}}",[5],[5400],2.0,[None],"[u'', 5, -5, -10, 5, 5, 5, -10, 10, -10, 5, 10, -10]",515507,31.0,9744.0,-4.2127595583966556e+18,mouselab-mdp,1
[4049],[u'left'],test,"[u'0', u'9']","{u'mouseover': {u'state': {u'target': [], u'time': []}, u'edge': {u'target': [], u'time': []}}, u'click': {u'state': {u'target': [u'5', u'1', u'9'], u'time': [1015, 2173, 3028]}, u'edge': {u'target': [], u'time': []}}, u'mouseout': {u'state': {u'target': [], u'time': []}, u'edge': {u'target': [], u'time': []}}}",[10],[4047],7.0,[None],"[u'', -5, 10, -5, 10, 5, 5, -10, 5, 10, -5, 10, 10]",526049,32.0,9483.0,3.8024071126860584e+16,mouselab-mdp,1
"[5180, 5709, 6305]","[u'left', u'left', u'down']",test,"[u'0', u'9', u'10', u'12']","{u'mouseover': {u'state': {u'target': [], u'time': []}, u'edge': {u'target': [], u'time': []}}, u'click': {u'state': {u'target': [u'5', u'9', u'10', u'11', u'12'], u'time': [919, 1774, 2754, 3430, 4463]}, u'edge': {u'target': [], u'time': []}}, u'mouseout': {u'state': {u'target': [], u'time': []}, u'edge': {u'target': [], u'time': []}}}","[5, 10, 5]","[5178, 29, 107]",15.0,"[None, None, None]","[u'', 5, -5, 10, -5, -5, 5, 10, -10, 5, 10, -10, 5]",538592,33.0,11480.0,4.859092002678591e+18,mouselab-mdp,1
"[7029, 7928, 8547]","[u'right', u'right', u'up']",test,"[u'0', u'5', u'6', u'7']","{u'mouseover': {u'state': {u'target': [], u'time': []}, u'edge': {u'target': [], u'time': []}}, u'click': {u'state': {u'target': [u'9', u'10', u'1', u'5', u'6', u'7', u'8'], u'time': [327, 2903, 3803, 4590, 5141, 5793, 6571]}, u'edge': {u'target': [], u'time': []}}, u'mouseout': {u'state': {u'target': [], u'time': []}, u'edge': {u'target': [], u'time': []}}}","[5, -5, 10]","[7026, 395, 131]",3.0,"[None, None, None]","[u'', -10, 10, -10, 10, 5, -5, 10, -10, 5, -10, 5, -10]",550608,34.0,10944.0,8.916704547234911e+18,mouselab-mdp,1
"[7576, 8105, 8645]","[u'up', u'up', u'right']",test,"[u'0', u'1', u'2', u'3']","{u'mouseover': {u'state': {u'target': [], u'time': []}, u'edge': {u'target': [], u'time': []}}, u'click': {u'state': {u'target': [u'5', u'1', u'3', u'4'], u'time': [2730, 3293, 4926, 6701]}, u'edge': {u'target': [], u'time': []}}, u'mouseout': {u'state': {u'target': [], u'time': []}, u'edge': {u'target': [], u'time': []}}}","[10, -5, 5]","[7575, 27, 44]",6.0,"[None, None, None]","[u'', 10, -5, 5, -5, -5, -5, -5, -5, 5, -5, 10, 5]",562207,35.0,10535.0,1.3034732393768448e+18,mouselab-mdp,1
"[8010, 8853, 9417]","[u'up', u'up', u'left']",test,"[u'0', u'1', u'2', u'4']","{u'mouseover': {u'state': {u'target': [], u'time': []}, u'edge': {u'target': [], u'time': []}}, u'click': {u'state': {u'target': [u'9', u'1', u'5', u'2', u'6', u'3', u'4'], u'time': [2163, 2918, 3603, 4469, 5337, 6427, 7237]}, u'edge': {u'target': [], u'time': []}}, u'mouseout': {u'state': {u'target': [], u'time': []}, u'edge': {u'target': [], u'time': []}}}","[5, 5, 10]","[8009, 354, 68]",13.0,"[None, None, None]","[u'', 5, 5, 5, 10, 5, -5, -5, -10, -5, -10, 10, -10]",575875,36.0,12600.0,5.189627300054367e+18,mouselab-mdp,1
"[4662, 5191, 5697]","[u'right', u'right', u'up']",test,"[u'0', u'5', u'6', u'7']","{u'mouseover': {u'state': {u'target': [], u'time': []}, u'edge': {u'target': [], u'time': []}}, u'click': {u'state': {u'target': [u'5', u'6', u'8'], u'time': [717, 1526, 2215]}, u'edge': {u'target': [], u'time': []}}, u'mouseout': {u'state': {u'target': [], u'time': []}, u'edge': {u'target': [], u'time': []}}}","[10, 5, 10]","[4660, 38, 11]",22.0,"[None, None, None]","[u'', -10, -5, -10, 5, 10, 5, 10, -5, 10, -5, 10, 5]",587024,37.0,10085.0,-8.549120811661888e+17,mouselab-mdp,1
"[5733, 6667, 7274]","[u'up', u'up', u'left']",test,"[u'0', u'1', u'2', u'4']","{u'mouseover': {u'state': {u'target': [], u'time': []}, u'edge': {u'target': [], u'time': []}}, u'click': {u'state': {u'target': [u'9', u'10', u'1', u'2', u'3', u'4'], u'time': [684, 1573, 2484, 3398, 4048, 5119]}, u'edge': {u'target': [], u'time': []}}, u'mouseout': {u'state': {u'target': [], u'time': []}, u'edge': {u'target': [], u'time': []}}}","[5, 10, 10]","[5731, 443, 115]",19.0,"[None, None, None]","[u'', 5, 10, -10, 10, 10, 5, -5, 10, -10, -5, 10, -5]",598397,38.0,10311.0,8.737010464064418e+18,mouselab-mdp,1
"[4429, 4925, 5498]","[u'left', u'left', u'up']",test,"[u'0', u'9', u'10', u'11']","{u'mouseover': {u'state': {u'target': [], u'time': []}, u'edge': {u'target': [], u'time': []}}, u'click': {u'state': {u'target': [u'5', u'9', u'10', u'11', u'12'], u'time': [765, 1542, 2250, 2879, 3656]}, u'edge': {u'target': [], u'time': []}}, u'mouseout': {u'state': {u'target': [], u'time': []}, u'edge': {u'target': [], u'time': []}}}","[10, -5, 5]","[4428, 2, 57]",5.0,"[None, None, None]","[u'', -5, 5, -10, -5, -5, 5, 10, -5, 10, -5, 5, -10]",609243,39.0,9772.0,8.572648276602424e+18,mouselab-mdp,1
[],[],test,[u'0'],"{u'mouseover': {u'state': {u'target': [], u'time': []}, u'edge': {u'target': [], u'time': []}}, u'click': {u'state': {u'target': [u'9', u'5', u'1'], u'time': [5991, 8342, 9130]}, u'edge': {u'target': [], u'time': []}}, u'mouseout': {u'state': {u'target': [], u'time': []}, u'edge': {u'target': [], u'time': []}}}",[],[],-3.0,[],"[u'', 5, -5, -10, 10, -10, -10, -5, -5, -10, 5, -10, 5]",620942,40.0,10634.0,2.252076120381865e+18,mouselab-mdp,1
[],[],test,[u'0'],"{u'mouseover': {u'state': {u'target': [], u'time': []}, u'edge': {u'target': [], u'time': []}}, u'click': {u'state': {u'target': [u'1', u'5', u'3', u'4', u'11', u'12'], u'time': [736, 2176, 3683, 5427, 7441, 8600]}, u'edge': {u'target': [], u'time': []}}, u'mouseout': {u'state': {u'target': [], u'time': []}, u'edge': {u'target': [], u'time': []}}}",[],[],-6.0,[],"[u'', 5, 10, -10, -10, -10, 10, 5, 5, -5, 10, -5, 10]",635128,41.0,13118.0,-7.119666741695585e+18,mouselab-mdp,1
"[2970, 5153, 5749]","[u'up', u'up', u'right']",test,"[u'0', u'1', u'2', u'3']","{u'mouseover': {u'state': {u'target': [], u'time': []}, u'edge': {u'target': [], u'time': []}}, u'click': {u'state': {u'target': [u'9', u'1'], u'time': [465, 1692]}, u'edge': {u'target': [], u'time': []}}, u'mouseout': {u'state': {u'target': [], u'time': []}, u'edge': {u'target': [], u'time': []}}}","[10, -5, -10]","[2969, 1686, 108]",-7.0,"[None, None, None]","[u'', 10, -5, -10, 10, -10, 10, 10, -5, 5, 5, 5, 10]",646480,42.0,10283.0,-6.044130621866826e+18,mouselab-mdp,1
"[5813, 6443, 7027]","[u'right', u'right', u'up']",test,"[u'0', u'5', u'6', u'7']","{u'mouseover': {u'state': {u'target': [], u'time': []}, u'edge': {u'target': [], u'time': []}}, u'click': {u'state': {u'target': [u'1', u'9', u'5', u'6', u'7'], u'time': [1080, 1946, 2880, 3588, 4332]}, u'edge': {u'target': [], u'time': []}}, u'mouseout': {u'state': {u'target': [], u'time': []}, u'edge': {u'target': [], u'time': []}}}","[-5, -10, 10]","[5810, 127, 94]",-10.0,"[None, None, None]","[u'', -10, -5, 10, -10, -5, -10, 10, 10, -10, -5, -10, 10]",656503,43.0,8962.0,-7.342034422792319e+18,mouselab-mdp,1
"[4419, 5363]","[u'right', u'right']",test,"[u'0', u'5', u'6']","{u'mouseover': {u'state': {u'target': [], u'time': []}, u'edge': {u'target': [], u'time': []}}, u'click': {u'state': {u'target': [u'1', u'9', u'5'], u'time': [1902, 2644, 3546]}, u'edge': {u'target': [], u'time': []}}, u'mouseout': {u'state': {u'target': [], u'time': []}, u'edge': {u'target': [], u'time': []}}}","[10, 5]","[4417, 455]",12.0,"[None, None]","[u'', -10, 5, 5, -5, 10, 5, -10, -10, -10, -5, -10, 5]",666876,44.0,9312.0,6.62653966049298e+17,mouselab-mdp,1
[6076],[u'right'],test,"[u'0', u'5']","{u'mouseover': {u'state': {u'target': [], u'time': []}, u'edge': {u'target': [], u'time': []}}, u'click': {u'state': {u'target': [u'5', u'6', u'8'], u'time': [860, 3775, 5607]}, u'edge': {u'target': [], u'time': []}}, u'mouseout': {u'state': {u'target': [], u'time': []}, u'edge': {u'target': [], u'time': []}}}",[10],[6074],7.0,[None],"[u'', -5, 5, 5, -5, 10, -10, 5, -5, 10, -5, 10, -5]",678576,45.0,10632.0,3.344637441394107e+17,mouselab-mdp,1
"[5226, 6069, 6643]","[u'up', u'up', u'left']",test,"[u'0', u'1', u'2', u'4']","{u'mouseover': {u'state': {u'target': [], u'time': []}, u'edge': {u'target': [], u'time': []}}, u'click': {u'state': {u'target': [u'9', u'1', u'10', u'2', u'3', u'4'], u'time': [1100, 1798, 2596, 3271, 3900, 4586]}, u'edge': {u'target': [], u'time': []}}, u'mouseout': {u'state': {u'target': [], u'time': []}, u'edge': {u'target': [], u'time': []}}}","[10, 10, 10]","[5223, 349, 75]",24.0,"[None, None, None]","[u'', 10, 10, 5, 10, -10, -10, -5, -5, 10, -5, 5, 10]",688914,46.0,9274.0,-3.019010559255296e+18,mouselab-mdp,1
"[6973, 7535, 8143]","[u'right', u'right', u'down']",test,"[u'0', u'5', u'6', u'8']","{u'mouseover': {u'state': {u'target': [], u'time': []}, u'edge': {u'target': [], u'time': []}}, u'click': {u'state': {u'target': [u'5', u'1', u'9', u'10', u'6', u'7'], u'time': [620, 1632, 2331, 3039, 4648, 5311]}, u'edge': {u'target': [], u'time': []}}, u'mouseout': {u'state': {u'target': [], u'time': []}, u'edge': {u'target': [], u'time': []}}}","[-5, 5, 10]","[6971, 61, 119]",4.0,"[None, None, None]","[u'', -5, 5, -5, 10, -5, 5, -5, 10, 10, -10, 5, 10]",699850,47.0,9864.0,-7.97546906179963e+18,mouselab-mdp,1
[6318],[u'right'],test,"[u'0', u'5']","{u'mouseover': {u'state': {u'target': [], u'time': []}, u'edge': {u'target': [], u'time': []}}, u'click': {u'state': {u'target': [u'9', u'10', u'11', u'12', u'5', u'1'], u'time': [798, 1619, 2305, 3114, 4656, 5297]}, u'edge': {u'target': [], u'time': []}}, u'mouseout': {u'state': {u'target': [], u'time': []}, u'edge': {u'target': [], u'time': []}}}",[10],[6316],4.0,[None],"[u'', 10, 5, 10, 5, 10, 10, -5, -10, 5, -5, -10, 5]",712101,48.0,11189.0,4.3967390784059443e+18,mouselab-mdp,1
"[4540, 5485, 6149]","[u'right', u'right', u'up']",test,"[u'0', u'5', u'6', u'7']","{u'mouseover': {u'state': {u'target': [], u'time': []}, u'edge': {u'target': [], u'time': []}}, u'click': {u'state': {u'target': [u'1', u'5', u'9', u'6', u'7', u'8'], u'time': [393, 1145, 1831, 2653, 3340, 4014]}, u'edge': {u'target': [], u'time': []}}, u'mouseout': {u'state': {u'target': [], u'time': []}, u'edge': {u'target': [], u'time': []}}}","[10, 5, 5]","[4539, 456, 170]",14.0,"[None, None, None]","[u'', -10, 5, -10, -5, 10, 5, 5, -10, -5, 5, 10, -10]",721900,49.0,8736.0,3.5302878717738757e+18,mouselab-mdp,1
"[32439, 33925, 34692]","[u'left', u'left', u'up']",train_basic,"[u'0', u'9', u'10', u'11']","{u'mouseover': {u'state': {u'target': [], u'time': []}, u'edge': {u'target': [], u'time': []}}, u'click': {u'state': {u'target': [], u'time': []}, u'edge': {u'target': [], u'time': []}}, u'mouseout': {u'state': {u'target': [], u'time': []}, u'edge': {u'target': [], u'time': []}}}","[10, -5, 5]","[32430, 970, 266]",10.0,"[None, None, None]","[u'', -5, -10, 5, 5, -5, -10, 5, -5, 10, -5, 5, -10]",38104,0.0,37700.0,-8.166458029472813e+18,mouselab-mdp,2
"[4699, 5834, 6914]","[u'up', u'up', u'right']",train_basic,"[u'0', u'1', u'2', u'3']","{u'mouseover': {u'state': {u'target': [], u'time': []}, u'edge': {u'target': [], u'time': []}}, u'click': {u'state': {u'target': [], u'time': []}, u'edge': {u'target': [], u'time': []}}, u'mouseout': {u'state': {u'target': [], u'time': []}, u'edge': {u'target': [], u'time': []}}}","[-10, 10, 10]","[4691, 631, 572]",10.0,"[None, None, None]","[u'', -10, 10, 10, -5, -5, 10, -5, -10, 10, 10, -5, 10]",49088,1.0,9794.0,-4.1003180650031995e+18,mouselab-mdp,2
"[3417, 4257, 4873]","[u'right', u'right', u'down']",train_basic,"[u'0', u'5', u'6', u'8']","{u'mouseover': {u'state': {u'target': [], u'time': []}, u'edge': {u'target': [], u'time': []}}, u'click': {u'state': {u'target': [], u'time': []}, u'edge': {u'target': [], u'time': []}}, u'mouseout': {u'state': {u'target': [], u'time': []}, u'edge': {u'target': [], u'time': []}}}","[10, 5, 10]","[3412, 343, 107]",25.0,"[None, None, None]","[u'', 5, 10, -10, -10, 10, 5, -10, 10, 10, 10, 5, -10]",56479,2.0,6192.0,-8.624537318595376e+18,mouselab-mdp,2
"[5077, 5676, 6220]","[u'up', u'up', u'left']",train_basic,"[u'0', u'1', u'2', u'4']","{u'mouseover': {u'state': {u'target': [], u'time': []}, u'edge': {u'target': [], u'time': []}}, u'click': {u'state': {u'target': [], u'time': []}, u'edge': {u'target': [], u'time': []}}, u'mouseout': {u'state': {u'target': [], u'time': []}, u'edge': {u'target': [], u'time': []}}}","[-5, 10, 10]","[5070, 84, 44]",15.0,"[None, None, None]","[u'', -5, 10, -5, 10, 5, -5, 10, 5, -5, 10, -5, -5]",68231,3.0,10572.0,7.213920450040262e+18,mouselab-mdp,2
"[4004, 4603, 5108]","[u'up', u'up', u'left']",train_basic,"[u'0', u'1', u'2', u'4']","{u'mouseover': {u'state': {u'target': [], u'time': []}, u'edge': {u'target': [], u'time': []}}, u'click': {u'state': {u'target': [], u'time': []}, u'edge': {u'target': [], u'time': []}}, u'mouseout': {u'state': {u'target': [], u'time': []}, u'edge': {u'target': [], u'time': []}}}","[5, 5, 5]","[3996, 101, 3]",15.0,"[None, None, None]","[u'', 5, 5, 5, 5, -10, -10, 5, 10, -10, -5, -5, -5]",75607,4.0,6203.0,-5.299628366905943e+18,mouselab-mdp,2
"[2813, 3460, 4028]","[u'left', u'left', u'up']",train_basic,"[u'0', u'9', u'10', u'11']","{u'mouseover': {u'state': {u'target': [], u'time': []}, u'edge': {u'target': [], u'time': []}}, u'click': {u'state': {u'target': [], u'time': []}, u'edge': {u'target': [], u'time': []}}, u'mouseout': {u'state': {u'target': [], u'time': []}, u'edge': {u'target': [], u'time': []}}}","[-5, 10, 5]","[2809, 126, 60]",10.0,"[None, None, None]","[u'', -10, -10, 10, -10, -5, -10, 10, 5, -5, 10, 5, -5]",82023,5.0,5244.0,5.603840126336082e+18,mouselab-mdp,2
"[2039, 2679, 3199]","[u'up', u'up', u'left']",train_basic,"[u'0', u'1', u'2', u'4']","{u'mouseover': {u'state': {u'target': [], u'time': []}, u'edge': {u'target': [], u'time': []}}, u'click': {u'state': {u'target': [], u'time': []}, u'edge': {u'target': [], u'time': []}}, u'mouseout': {u'state': {u'target': [], u'time': []}, u'edge': {u'target': [], u'time': []}}}","[5, 5, 10]","[2033, 130, 14]",20.0,"[None, None, None]","[u'', 5, 5, 5, 10, 5, -5, -5, -10, -5, -10, 10, -10]",87774,6.0,4574.0,5.189627300054367e+18,mouselab-mdp,2
"[2576, 3215, 3807]","[u'right', u'right', u'up']",train_basic,"[u'0', u'5', u'6', u'7']","{u'mouseover': {u'state': {u'target': [], u'time': []}, u'edge': {u'target': [], u'time': []}}, u'click': {u'state': {u'target': [], u'time': []}, u'edge': {u'target': [], u'time': []}}, u'mouseout': {u'state': {u'target': [], u'time': []}, u'edge': {u'target': [], u'time': []}}}","[10, -5, 10]","[2570, 121, 94]",15.0,"[None, None, None]","[u'', 5, -10, 10, -10, 10, -5, 10, 5, 5, -10, -10, -10]",94006,7.0,5078.0,-6.90593884411209e+17,mouselab-mdp,2
"[3179, 3875, 4475]","[u'right', u'right', u'up']",train_basic,"[u'0', u'5', u'6', u'7']","{u'mouseover': {u'state': {u'target': [], u'time': []}, u'edge': {u'target': [], u'time': []}}, u'click': {u'state': {u'target': [], u'time': []}, u'edge': {u'target': [], u'time': []}}, u'mouseout': {u'state': {u'target': [], u'time': []}, u'edge': {u'target': [], u'time': []}}}","[5, -5, 5]","[3175, 174, 105]",5.0,"[None, None, None]","[u'', -5, -10, 5, 5, 5, -5, 5, -10, -5, -5, -5, -10]",100665,8.0,5501.0,-7.611027172769307e+18,mouselab-mdp,2
"[2370, 3072, 3712]","[u'up', u'up', u'right']",train_basic,"[u'0', u'1', u'2', u'3']","{u'mouseover': {u'state': {u'target': [], u'time': []}, u'edge': {u'target': [], u'time': []}}, u'click': {u'state': {u'target': [], u'time': []}, u'edge': {u'target': [], u'time': []}}, u'mouseout': {u'state': {u'target': [], u'time': []}, u'edge': {u'target': [], u'time': []}}}","[10, 10, 5]","[2365, 191, 129]",25.0,"[None, None, None]","[u'', 10, 10, 5, 5, -10, -5, -5, -10, 5, -5, 10, 10]",106719,9.0,4896.0,8.086241799233455e+18,mouselab-mdp,2
"[12587, 15058, 17394]","[u'left', u'left', u'down']",train_hidden,"[u'0', u'9', u'10', u'12']","{u'mouseover': {u'state': {u'target': [], u'time': []}, u'edge': {u'target': [], u'time': []}}, u'click': {u'state': {u'target': [], u'time': []}, u'edge': {u'target': [], u'time': []}}, u'mouseout': {u'state': {u'target': [], u'time': []}, u'edge': {u'target': [], u'time': []}}}","[10, 5, -5]","[12582, 1969, 1832]",10.0,"[None, None, None]","[u'', -10, 10, -5, -10, 10, -5, 10, 5, 10, 5, 10, -5]",129423,10.0,19369.0,1.9920789159475208e+18,mouselab-mdp,2
"[2572, 3676, 5164]","[u'up', u'up', u'right']",train_hidden,"[u'0', u'1', u'2', u'3']","{u'mouseover': {u'state': {u'target': [], u'time': []}, u'edge': {u'target': [], u'time': []}}, u'click': {u'state': {u'target': [], u'time': []}, u'edge': {u'target': [], u'time': []}}, u'mouseout': {u'state': {u'target': [], u'time': []}, u'edge': {u'target': [], u'time': []}}}","[5, 10, 10]","[2568, 584, 984]",25.0,"[None, None, None]","[u'', 5, 10, 10, -5, 5, 10, -5, 5, -10, -5, -10, 5]",137182,11.0,6595.0,5.25598264187708e+18,mouselab-mdp,2
"[1447, 2559, 3743]","[u'right', u'right', u'down']",train_hidden,"[u'0', u'5', u'6', u'8']","{u'mouseover': {u'state': {u'target': [], u'time': []}, u'edge': {u'target': [], u'time': []}}, u'click': {u'state': {u'target': [], u'time': []}, u'edge': {u'target': [], u'time': []}}, u'mouseout': {u'state': {u'target': [], u'time': []}, u'edge': {u'target': [], u'time': []}}}","[10, 5, -10]","[1442, 607, 670]",5.0,"[None, None, None]","[u'', -10, 5, 5, -5, 10, 5, -10, -10, -10, -5, -10, 5]",143247,12.0,4895.0,6.62653966049298e+17,mouselab-mdp,2
"[575, 1527, 2455]","[u'right', u'right', u'up']",train_hidden,"[u'0', u'5', u'6', u'7']","{u'mouseover': {u'state': {u'target': [], u'time': []}, u'edge': {u'target': [], u'time': []}}, u'click': {u'state': {u'target': [], u'time': []}, u'edge': {u'target': [], u'time': []}}, u'mouseout': {u'state': {u'target': [], u'time': []}, u'edge': {u'target': [], u'time': []}}}","[10, 10, 5]","[569, 453, 422]",25.0,"[None, None, None]","[u'', -10, -5, -5, 10, 10, 10, 5, -5, -5, 10, 5, 10]",148102,13.0,3702.0,-2.464562972607473e+18,mouselab-mdp,2
"[1596, 2484, 3828]","[u'up', u'up', u'right']",train_hidden,"[u'0', u'1', u'2', u'3']","{u'mouseover': {u'state': {u'target': [], u'time': []}, u'edge': {u'target': [], u'time': []}}, u'click': {u'state': {u'target': [], u'time': []}, u'edge': {u'target': [], u'time': []}}, u'mouseout': {u'state': {u'target': [], u'time': []}, u'edge': {u'target': [], u'time': []}}}","[-5, 5, -5]","[1591, 382, 838]",-5.0,"[None, None, None]","[u'', -5, 5, -5, 10, -5, 5, -5, 10, 10, -10, 5, 10]",154183,14.0,4924.0,-7.97546906179963e+18,mouselab-mdp,2
"[27998, 28774, 29275]","[u'up', u'up', u'right']",train_inspector,"[u'0', u'1', u'2', u'3']","{u'mouseover': {u'state': {u'target': [], u'time': []}, u'edge': {u'target': [], u'time': []}}, u'click': {u'state': {u'target': [u'9', u'1', u'5', u'2', u'6', u'10', u'4', u'3'], u'time': [18093, 19168, 19887, 21287, 22104, 23064, 24743, 26079]}, u'edge': {u'target': [], u'time': []}}, u'mouseout': {u'state': {u'target': [], u'time': []}, u'edge': {u'target': [], u'time': []}}}","[-10, 5, 10]","[27991, 267, 3]",5.0,"[None, None, None]","[u'', -10, 5, 10, 10, -10, -5, 5, 10, -10, -10, -10, -5]",188518,15.0,31365.0,8.607347987074356e+18,mouselab-mdp,2
"[17956, 18635, 19243]","[u'left', u'left', u'down']",train_inspector,"[u'0', u'9', u'10', u'12']","{u'mouseover': {u'state': {u'target': [], u'time': []}, u'edge': {u'target': [], u'time': []}}, u'click': {u'state': {u'target': [u'1', u'5', u'9', u'10', u'2', u'6', u'7', u'8', u'3', u'4', u'11', u'12'], u'time': [872, 1605, 2388, 4844, 5669, 6437, 11069, 12436, 13468, 14340, 15708, 16516]}, u'edge': {u'target': [], u'time': []}}, u'mouseout': {u'state': {u'target': [], u'time': []}, u'edge': {u'target': [], u'time': []}}}","[5, -10, 5]","[17950, 162, 101]",0.0,"[None, None, None]","[u'', -5, -10, -10, 5, -10, -5, -5, -10, 5, -10, 5, 5]",210366,16.0,20667.0,7.710656893126775e+18,mouselab-mdp,2
"[11271, 11895, 12471]","[u'right', u'right', u'up']",train_inspector,"[u'0', u'5', u'6', u'7']","{u'mouseover': {u'state': {u'target': [], u'time': []}, u'edge': {u'target': [], u'time': []}}, u'click': {u'state': {u'target': [u'9', u'1', u'5', u'10', u'11', u'12', u'2', u'3', u'4', u'7', u'6', u'8'], u'time': [1017, 1664, 2912, 4320, 5081, 5872, 6760, 7384, 8072, 8800, 9360, 9864]}, u'edge': {u'target': [], u'time': []}}, u'mouseout': {u'state': {u'target': [], u'time': []}, u'edge': {u'target': [], u'time': []}}}","[-5, 5, 10]","[11265, 109, 68]",10.0,"[None, None, None]","[u'', -5, 5, -10, -5, -5, 5, 10, -5, 10, -5, 5, -10]",226702,17.0,15159.0,8.572648276602424e+18,mouselab-mdp,2
"[15191, 15847, 16430]","[u'right', u'right', u'down']",train_inspector,"[u'0', u'5', u'6', u'8']","{u'mouseover': {u'state': {u'target': [], u'time': []}, u'edge': {u'target': [], u'time': []}}, u'click': {u'state': {u'target': [u'1', u'5', u'9', u'2', u'6', u'10', u'12', u'11', u'4', u'3', u'7', u'8'], u'time': [1473, 2800, 3536, 4408, 6049, 6904, 8016, 9696, 10672, 11480, 13184, 13976]}, u'edge': {u'target': [], u'time': []}}, u'mouseout': {u'state': {u'target': [], u'time': []}, u'edge': {u'target': [], u'time': []}}}","[5, 5, 10]","[15184, 153, 85]",20.0,"[None, None, None]","[u'', 5, -5, -10, 5, 5, 5, -10, 10, -10, 5, 10, -10]",245197,18.0,17270.0,-4.2127595583966556e+18,mouselab-mdp,2
"[12272, 12895, 13447]","[u'up', u'up', u'right']",train_inspector,"[u'0', u'1', u'2', u'3']","{u'mouseover': {u'state': {u'target': [], u'time': []}, u'edge': {u'target': [], u'time': []}}, u'click': {u'state': {u'target': [u'9', u'1', u'5', u'6', u'7', u'8', u'3', u'2', u'4', u'10', u'11', u'12'], u'time': [1153, 1848, 2505, 3337, 4026, 4689, 6280, 6905, 7640, 8784, 9978, 10875]}, u'edge': {u'target': [], u'time': []}}, u'mouseout': {u'state': {u'target': [], u'time': []}, u'edge': {u'target': [], u'time': []}}}","[10, 5, 10]","[12269, 109, 42]",25.0,"[None, None, None]","[u'', 10, 5, 10, -5, 10, -5, -10, 10, 5, -10, 10, 5]",260909,19.0,14567.0,3.6441571471145324e+18,mouselab-mdp,2
"[19445, 20085, 20629]","[u'right', u'right', u'down']",train_inspect_cost,"[u'0', u'5', u'6', u'8']","{u'mouseover': {u'state': {u'target': [], u'time': []}, u'edge': {u'target': [], u'time': []}}, u'click': {u'state': {u'target': [u'9', u'1', u'5', u'6', u'8'], u'time': [9879, 12438, 13598, 15182, 18198]}, u'edge': {u'target': [], u'time': []}}, u'mouseout': {u'state': {u'target': [], u'time': []}, u'edge': {u'target': [], u'time': []}}}","[10, 10, 10]","[19434, 135, 42]",25.0,"[None, None, None]","[u'', -5, -5, 5, 5, 10, 10, -5, 10, -10, -10, -10, 5]",286093,20.0,22324.0,4.176600634517876e+18,mouselab-mdp,2
"[8986, 9602, 10178]","[u'left', u'left', u'up']",train_inspect_cost,"[u'0', u'9', u'10', u'11']","{u'mouseover': {u'state': {u'target': [], u'time': []}, u'edge': {u'target': [], u'time': []}}, u'click': {u'state': {u'target': [u'5', u'1', u'9', u'10', u'12', u'11'], u'time': [1268, 2404, 3259, 4587, 6331, 7931]}, u'edge': {u'target': [], u'time': []}}, u'mouseout': {u'state': {u'target': [], u'time': []}, u'edge': {u'target': [], u'time': []}}}","[10, 5, 10]","[8983, 110, 67]",19.0,"[None, None, None]","[u'', -10, -5, 5, -5, -10, 5, 5, 5, 10, 5, 10, -10]",299036,21.0,11777.0,-5.4249062934784986e+17,mouselab-mdp,2
"[9008, 9696, 10272]","[u'left', u'left', u'up']",train_inspect_cost,"[u'0', u'9', u'10', u'11']","{u'mouseover': {u'state': {u'target': [], u'time': []}, u'edge': {u'target': [], u'time': []}}, u'click': {u'state': {u'target': [u'9', u'10', u'12', u'11'], u'time': [2098, 3072, 4097, 4825]}, u'edge': {u'target': [], u'time': []}}, u'mouseout': {u'state': {u'target': [], u'time': []}, u'edge': {u'target': [], u'time': []}}}","[10, -5, 10]","[9004, 185, 74]",11.0,"[None, None, None]","[u'', 10, -10, 5, 5, 5, 5, -5, 5, 10, -5, 10, -10]",311772,22.0,11567.0,-6.577176273229301e+18,mouselab-mdp,2
"[12732, 13331, 13955]","[u'right', u'right', u'up']",train_inspect_cost,"[u'0', u'5', u'6', u'7']","{u'mouseover': {u'state': {u'target': [], u'time': []}, u'edge': {u'target': [], u'time': []}}, u'click': {u'state': {u'target': [u'9', u'5', u'6', u'8', u'7', u'10'], u'time': [2149, 4452, 5821, 6795, 7675, 11004]}, u'edge': {u'target': [], u'time': []}}, u'mouseout': {u'state': {u'target': [], u'time': []}, u'edge': {u'target': [], u'time': []}}}","[10, 10, -5]","[12726, 89, 114]",9.0,"[None, None, None]","[u'', 10, 5, 10, 5, 10, 10, -5, -10, 5, -5, -10, 5]",328300,23.0,15362.0,4.3967390784059443e+18,mouselab-mdp,2
"[5856, 6535, 7079]","[u'up', u'up', u'right']",train_inspect_cost,"[u'0', u'1', u'2', u'3']","{u'mouseover': {u'state': {u'target': [], u'time': []}, u'edge': {u'target': [], u'time': []}}, u'click': {u'state': {u'target': [u'1', u'2', u'3', u'4'], u'time': [1712, 2703, 3680, 4834]}, u'edge': {u'target': [], u'time': []}}, u'mouseout': {u'state': {u'target': [], u'time': []}, u'edge': {u'target': [], u'time': []}}}","[10, 5, 10]","[5851, 169, 43]",21.0,"[None, None, None]","[u'', 10, 5, 10, 5, 10, -5, 5, -10, -5, -10, -5, -10]",338124,24.0,8678.0,-8.861839220469794e+18,mouselab-mdp,2
"[30731, 31466, 32122]","[u'up', u'up', u'left']",train_final,"[u'0', u'1', u'2', u'4']","{u'mouseover': {u'state': {u'target': [], u'time': []}, u'edge': {u'target': [], u'time': []}}, u'click': {u'state': {u'target': [u'9', u'10', u'1', u'2', u'5', u'3', u'4'], u'time': [19380, 21451, 23220, 24443, 27340, 28516, 29356]}, u'edge': {u'target': [], u'time': []}}, u'mouseout': {u'state': {u'target': [], u'time': []}, u'edge': {u'target': [], u'time': []}}}","[5, 5, 5]","[30726, 230, 152]",8.0,"[None, None, None]","[u'', 5, 5, -10, 5, -10, 10, 5, -10, 10, -10, 10, 5]",374620,25.0,33306.0,7.494910043448008e+18,mouselab-mdp,2
"[6817, 7425, 7977]","[u'left', u'left', u'up']",train_final,"[u'0', u'9', u'10', u'11']","{u'mouseover': {u'state': {u'target': [], u'time': []}, u'edge': {u'target': [], u'time': []}}, u'click': {u'state': {u'target': [u'1', u'9', u'10', u'11'], u'time': [2460, 3540, 4419, 5308]}, u'edge': {u'target': [], u'time': []}}, u'mouseout': {u'state': {u'target': [], u'time': []}, u'edge': {u'target': [], u'time': []}}}","[10, -5, 10]","[6813, 101, 56]",11.0,"[None, None, None]","[u'', -5, 5, 5, -5, 10, -10, 5, -5, 10, -5, 10, -5]",385164,26.0,9377.0,3.344637441394107e+17,mouselab-mdp,2
"[3356, 4035, 4747]","[u'right', u'right', u'down']",train_final,"[u'0', u'5', u'6', u'8']","{u'mouseover': {u'state': {u'target': [], u'time': []}, u'edge': {u'target': [], u'time': []}}, u'click': {u'state': {u'target': [u'5', u'6', u'8'], u'time': [989, 1756, 2508]}, u'edge': {u'target': [], u'time': []}}, u'mouseout': {u'state': {u'target': [], u'time': []}, u'edge': {u'target': [], u'time': []}}}","[10, 10, 10]","[3349, 167, 209]",27.0,"[None, None, None]","[u'', -5, 10, 10, 5, 10, 10, 10, 10, -10, 5, 5, 5]",392012,27.0,5683.0,-6.980762109714071e+18,mouselab-mdp,2
"[8157, 8884, 9508]","[u'up', u'up', u'left']",train_final,"[u'0', u'1', u'2', u'4']","{u'mouseover': {u'state': {u'target': [], u'time': []}, u'edge': {u'target': [], u'time': []}}, u'click': {u'state': {u'target': [u'5', u'1', u'2', u'3', u'4'], u'time': [983, 3518, 4445, 5389, 7262]}, u'edge': {u'target': [], u'time': []}}, u'mouseout': {u'state': {u'target': [], u'time': []}, u'edge': {u'target': [], u'time': []}}}","[10, 10, 10]","[8150, 219, 122]",25.0,"[None, None, None]","[u'', 10, 10, 5, 10, -10, -10, -5, -5, 10, -5, 5, 10]",403587,28.0,10427.0,-3.019010559255296e+18,mouselab-mdp,2
"[4073, 4753, 5465]","[u'left', u'left', u'down']",train_final,"[u'0', u'9', u'10', u'12']","{u'mouseover': {u'state': {u'target': [], u'time': []}, u'edge': {u'target': [], u'time': []}}, u'click': {u'state': {u'target': [u'9', u'10', u'12'], u'time': [1308, 2363, 3074]}, u'edge': {u'target': [], u'time': []}}, u'mouseout': {u'state': {u'target': [], u'time': []}, u'edge': {u'target': [], u'time': []}}}","[5, 5, 10]","[4069, 171, 215]",17.0,"[None, None, None]","[u'', -5, 10, 5, 10, -5, -10, 10, 10, 5, 5, 5, 10]",411317,29.0,6562.0,8.130696467842232e+18,mouselab-mdp,2
"[6416, 7039, 7655]","[u'up', u'up', u'left']",test,"[u'0', u'1', u'2', u'4']","{u'mouseover': {u'state': {u'target': [], u'time': []}, u'edge': {u'target': [], u'time': []}}, u'click': {u'state': {u'target': [u'5', u'1', u'2', u'4'], u'time': [1152, 2377, 4256, 5336]}, u'edge': {u'target': [], u'time': []}}, u'mouseout': {u'state': {u'target': [], u'time': []}, u'edge': {u'target': [], u'time': []}}}","[5, 5, 10]","[6411, 110, 108]",16.0,"[None, None, None]","[u'', 5, 5, -5, 10, -5, -10, 10, 5, 10, 10, -10, -10]",451204,30.0,8831.0,5.938094249628056e+18,mouselab-mdp,2
"[4676, 5292, 5908]","[u'left', u'left', u'down']",test,"[u'0', u'9', u'10', u'12']","{u'mouseover': {u'state': {u'target': [], u'time': []}, u'edge': {u'target': [], u'time': []}}, u'click': {u'state': {u'target': [u'9', u'10', u'12'], u'time': [1901, 3004, 3740]}, u'edge': {u'target': [], u'time': []}}, u'mouseout': {u'state': {u'target': [], u'time': []}, u'edge': {u'target': [], u'time': []}}}","[10, 10, 10]","[4671, 112, 108]",27.0,"[None, None, None]","[u'', 5, -5, -5, -5, -10, 5, 5, -10, 10, 10, 10, 10]",461964,31.0,9612.0,6.349377679140465e+18,mouselab-mdp,2
"[15197, 15852, 16413]","[u'left', u'left', u'down']",test,"[u'0', u'9', u'10', u'12']","{u'mouseover': {u'state': {u'target': [], u'time': []}, u'edge': {u'target': [], u'time': []}}, u'click': {u'state': {u'target': [u'5', u'1', u'9', u'6', u'10', u'11', u'12', u'2', u'3', u'4'], u'time': [1119, 2414, 3279, 4301, 5261, 8910, 10429, 11517, 13151, 13949]}, u'edge': {u'target': [], u'time': []}}, u'mouseout': {u'state': {u'target': [], u'time': []}, u'edge': {u'target': [], u'time': []}}}","[-5, 5, -5]","[15191, 152, 60]",-15.0,"[None, None, None]","[u'', -10, -10, -10, -10, -5, -10, -10, 10, -5, 5, -5, -5]",481843,32.0,18732.0,4.1891588108237983e+18,mouselab-mdp,2
"[19745, 20448, 21048]","[u'right', u'right', u'down']",test,"[u'0', u'5', u'6', u'8']","{u'mouseover': {u'state': {u'target': [], u'time': []}, u'edge': {u'target': [], u'time': []}}, u'click': {u'state': {u'target': [u'9', u'10', u'12', u'11', u'1', u'2', u'5', u'6', u'8'], u'time': [1739, 2634, 4130, 5145, 12266, 13297, 14545, 16481, 18801]}, u'edge': {u'target': [], u'time': []}}, u'mouseout': {u'state': {u'target': [], u'time': []}, u'edge': {u'target': [], u'time': []}}}","[10, 5, 5]","[19740, 199, 99]",11.0,"[None, None, None]","[u'', 5, -10, -5, 10, 10, 5, -10, 5, 5, -5, -5, 5]",505068,33.0,22081.0,8.034619116489217e+18,mouselab-mdp,2
"[10122, 10752, 11353]","[u'right', u'right', u'down']",test,"[u'0', u'5', u'6', u'8']","{u'mouseover': {u'state': {u'target': [], u'time': []}, u'edge': {u'target': [], u'time': []}}, u'click': {u'state': {u'target': [u'5', u'1', u'9', u'6', u'8'], u'time': [1602, 3257, 4513, 6866, 8938]}, u'edge': {u'target': [], u'time': []}}, u'mouseout': {u'state': {u'target': [], u'time': []}, u'edge': {u'target': [], u'time': []}}}","[-5, 5, 5]","[10115, 127, 92]",0.0,"[None, None, None]","[u'', -5, 10, -5, -5, -5, 5, -10, 5, -10, -10, 10, -10]",518915,34.0,12688.0,3.932980794305715e+18,mouselab-mdp,2
"[4792, 5432, 6008]","[u'up', u'up', u'right']",test,"[u'0', u'1', u'2', u'3']","{u'mouseover': {u'state': {u'target': [], u'time': []}, u'edge': {u'target': [], u'time': []}}, u'click': {u'state': {u'target': [u'5', u'1', u'2', u'3'], u'time': [1290, 2466, 3257, 3953]}, u'edge': {u'target': [], u'time': []}}, u'mouseout': {u'state': {u'target': [], u'time': []}, u'edge': {u'target': [], u'time': []}}}","[10, 10, 10]","[4788, 140, 80]",26.0,"[None, None, None]","[u'', 10, 10, 10, 10, -10, -10, -10, 5, 10, 10, 5, 5]",528571,35.0,8512.0,1.1933479039128937e+18,mouselab-mdp,2
"[5523, 6139, 6699]","[u'left', u'left', u'down']",test,"[u'0', u'9', u'10', u'12']","{u'mouseover': {u'state': {u'target': [], u'time': []}, u'edge': {u'target': [], u'time': []}}, u'click': {u'state': {u'target': [u'9', u'10', u'11', u'12'], u'time': [1492, 2484, 3308, 4613]}, u'edge': {u'target': [], u'time': []}}, u'mouseout': {u'state': {u'target': [], u'time': []}, u'edge': {u'target': [], u'time': []}}}","[10, 10, 5]","[5516, 110, 50]",21.0,"[None, None, None]","[u'', -10, 10, -10, 5, -5, 5, -10, -10, 10, 10, -5, 5]",539139,36.0,9411.0,-4.940336971661e+18,mouselab-mdp,2
"[4715, 5387, 6027]","[u'up', u'up', u'left']",test,"[u'0', u'1', u'2', u'4']","{u'mouseover': {u'state': {u'target': [], u'time': []}, u'edge': {u'target': [], u'time': []}}, u'click': {u'state': {u'target': [u'1', u'2', u'4'], u'time': [2221, 2995, 3829]}, u'edge': {u'target': [], u'time': []}}, u'mouseout': {u'state': {u'target': [], u'time': []}, u'edge': {u'target': [], u'time': []}}}","[10, -5, 10]","[4711, 165, 136]",12.0,"[None, None, None]","[u'', 10, -5, -10, 10, -10, 10, 10, -5, 5, 5, 5, 10]",548922,37.0,8634.0,-6.044130621866826e+18,mouselab-mdp,2
"[6952, 7568, 8096]","[u'right', u'right', u'down']",test,"[u'0', u'5', u'6', u'8']","{u'mouseover': {u'state': {u'target': [], u'time': []}, u'edge': {u'target': [], u'time': []}}, u'click': {u'state': {u'target': [u'5', u'6', u'8'], u'time': [3459, 4346, 5248]}, u'edge': {u'target': [], u'time': []}}, u'mouseout': {u'state': {u'target': [], u'time': []}, u'edge': {u'target': [], u'time': []}}}","[10, -5, 5]","[6947, 105, 32]",7.0,"[None, None, None]","[u'', 10, 10, -5, 5, 10, -5, -5, 5, -10, 5, -5, 10]",559506,38.0,9431.0,5.48878703662108e+18,mouselab-mdp,2
"[12914, 13537, 14121]","[u'left', u'left', u'down']",test,"[u'0', u'9', u'10', u'12']","{u'mouseover': {u'state': {u'target': [], u'time': []}, u'edge': {u'target': [], u'time': []}}, u'click': {u'state': {u'target': [u'1', u'9', u'10', u'12'], u'time': [5550, 7210, 8610, 9434]}, u'edge': {u'target': [], u'time': []}}, u'mouseout': {u'state': {u'target': [], u'time': []}, u'edge': {u'target': [], u'time': []}}}","[5, -5, 10]","[12908, 104, 84]",6.0,"[None, None, None]","[u'', -5, 10, 5, 5, -5, 5, -5, -10, 5, -5, 5, 10]",576042,39.0,15393.0,-5.812682556850434e+18,mouselab-mdp,2
"[7568, 8207, 8791]","[u'right', u'right', u'up']",test,"[u'0', u'5', u'6', u'7']","{u'mouseover': {u'state': {u'target': [], u'time': []}, u'edge': {u'target': [], u'time': []}}, u'click': {u'state': {u'target': [u'9', u'10', u'12', u'1', u'5', u'6', u'7'], u'time': [1107, 2000, 2832, 4016, 5200, 5912, 6711]}, u'edge': {u'target': [], u'time': []}}, u'mouseout': {u'state': {u'target': [], u'time': []}, u'edge': {u'target': [], u'time': []}}}","[10, 5, 10]","[7564, 138, 86]",18.0,"[None, None, None]","[u'', -5, -10, 10, 5, 10, 5, 10, 5, 5, -10, -5, -10]",587146,40.0,9959.0,3.569831271632112e+18,mouselab-mdp,2
"[17256, 17855, 18407]","[u'up', u'up', u'left']",test,"[u'0', u'1', u'2', u'4']","{u'mouseover': {u'state': {u'target': [], u'time': []}, u'edge': {u'target': [], u'time': []}}, u'click': {u'state': {u'target': [u'5', u'1', u'9', u'6', u'2', u'10', u'12', u'11', u'3', u'4'], u'time': [3882, 5392, 6576, 8360, 9984, 12416, 13168, 14096, 15497, 16160]}, u'edge': {u'target': [], u'time': []}}, u'mouseout': {u'state': {u'target': [], u'time': []}, u'edge': {u'target': [], u'time': []}}}","[-10, 5, 10]","[17251, 96, 45]",-5.0,"[None, None, None]","[u'', -10, 5, -5, 10, -10, -10, -5, 10, -10, 10, -5, -10]",607858,41.0,19567.0,-6.477964297241529e+18,mouselab-mdp,2
"[11767, 12383, 12974]","[u'right', u'right', u'up']",test,"[u'0', u'5', u'6', u'7']","{u'mouseover': {u'state': {u'target': [], u'time': []}, u'edge': {u'target': [], u'time': []}}, u'click': {u'state': {u'target': [u'1', u'2', u'4', u'3', u'5', u'6', u'8', u'7'], u'time': [1344, 3511, 4288, 5495, 6591, 8662, 9807, 10879]}, u'edge': {u'target': [], u'time': []}}, u'mouseout': {u'state': {u'target': [], u'time': []}, u'edge': {u'target': [], u'time': []}}}","[5, 5, 10]","[11760, 113, 85]",12.0,"[None, None, None]","[u'', 10, -5, -10, -5, 5, 5, 10, -10, -10, 5, 10, -10]",623009,42.0,14005.0,-8.642469369171842e+18,mouselab-mdp,2
"[11190, 11782, 12294]","[u'left', u'left', u'up']",test,"[u'0', u'9', u'10', u'11']","{u'mouseover': {u'state': {u'target': [], u'time': []}, u'edge': {u'target': [], u'time': []}}, u'click': {u'state': {u'target': [u'5', u'6', u'9', u'10', u'12', u'1', u'11'], u'time': [1152, 1999, 5143, 5903, 6638, 8543, 10183]}, u'edge': {u'target': [], u'time': []}}, u'mouseout': {u'state': {u'target': [], u'time': []}, u'edge': {u'target': [], u'time': []}}}","[10, -5, 10]","[11186, 93, 4]",8.0,"[None, None, None]","[u'', -5, 10, -5, 5, 5, -10, -10, -5, 10, -5, 10, -10]",637593,43.0,13437.0,1.0826444805002026e+18,mouselab-mdp,2
"[8322, 8922, 9442]","[u'left', u'left', u'up']",test,"[u'0', u'9', u'10', u'11']","{u'mouseover': {u'state': {u'target': [], u'time': []}, u'edge': {u'target': [], u'time': []}}, u'click': {u'state': {u'target': [u'9', u'10', u'11'], u'time': [2291, 4035, 6922]}, u'edge': {u'target': [], u'time': []}}, u'mouseout': {u'state': {u'target': [], u'time': []}, u'edge': {u'target': [], u'time': []}}}","[5, -5, 10]","[8319, 86, 20]",7.0,"[None, None, None]","[u'', -10, -5, -5, 10, 10, -5, 5, -10, 5, -5, 10, 5]",649226,44.0,10490.0,-4.641247981390103e+18,mouselab-mdp,2
"[5635, 6250, 6761]","[u'up', u'up', u'right']",test,"[u'0', u'1', u'2', u'3']","{u'mouseover': {u'state': {u'target': [], u'time': []}, u'edge': {u'target': [], u'time': []}}, u'click': {u'state': {u'target': [u'1', u'2', u'4', u'3'], u'time': [1429, 2380, 3372, 4643]}, u'edge': {u'target': [], u'time': []}}, u'mouseout': {u'state': {u'target': [], u'time': []}, u'edge': {u'target': [], u'time': []}}}","[10, -10, 10]","[5631, 112, 3]",6.0,"[None, None, None]","[u'', 10, -10, 10, 5, -5, -5, 5, -5, 10, -5, 10, 10]",659857,45.0,9474.0,-2.528293413986772e+18,mouselab-mdp,2
"[15065, 15673, 16713]","[u'left', u'left', u'down']",test,"[u'0', u'9', u'10', u'12']","{u'mouseover': {u'state': {u'target': [], u'time': []}, u'edge': {u'target': [], u'time': []}}, u'click': {u'state': {u'target': [u'5', u'1', u'9', u'10', u'11', u'12', u'2', u'3', u'4', u'6', u'7', u'8'], u'time': [1236, 2362, 3914, 5002, 6274, 7066, 9066, 10682, 11522, 12665, 13258, 13866]}, u'edge': {u'target': [], u'time': []}}, u'mouseout': {u'state': {u'target': [], u'time': []}, u'edge': {u'target': [], u'time': []}}}","[10, -10, 5]","[15060, 94, 528]",-7.0,"[None, None, None]","[u'', -5, 5, -5, -5, -10, -10, 10, -5, 10, -10, -5, 5]",678712,46.0,17712.0,8.077601249506434e+18,mouselab-mdp,2
"[11379, 12018, 12528]","[u'up', u'up', u'left']",test,"[u'0', u'1', u'2', u'4']","{u'mouseover': {u'state': {u'target': [], u'time': []}, u'edge': {u'target': [], u'time': []}}, u'click': {u'state': {u'target': [u'9', u'1', u'5', u'6', u'7', u'8', u'10', u'2', u'3', u'4'], u'time': [1917, 2891, 3674, 4635, 5378, 6154, 7922, 9107, 9771, 10515]}, u'edge': {u'target': [], u'time': []}}, u'mouseout': {u'state': {u'target': [], u'time': []}, u'edge': {u'target': [], u'time': []}}}","[-10, 10, 5]","[11374, 129, 3]",-5.0,"[None, None, None]","[u'', -10, 10, -5, 5, 5, -10, -10, -10, -10, -5, -10, -10]",693408,47.0,13545.0,6.612009546738605e+18,mouselab-mdp,2
"[6472, 7112, 7691]","[u'left', u'left', u'up']",test,"[u'0', u'9', u'10', u'11']","{u'mouseover': {u'state': {u'target': [], u'time': []}, u'edge': {u'target': [], u'time': []}}, u'click': {u'state': {u'target': [u'1', u'9', u'10', u'11'], u'time': [1298, 2201, 3272, 5440]}, u'edge': {u'target': [], u'time': []}}, u'mouseout': {u'state': {u'target': [], u'time': []}, u'edge': {u'target': [], u'time': []}}}","[10, -5, 10]","[6466, 126, 70]",11.0,"[None, None, None]","[u'', -5, 10, -5, 10, 5, 5, -10, 5, 10, -5, 10, 10]",703657,48.0,9104.0,3.8024071126860584e+16,mouselab-mdp,2
"[4272, 4896, 5471]","[u'right', u'right', u'up']",test,"[u'0', u'5', u'6', u'7']","{u'mouseover': {u'state': {u'target': [], u'time': []}, u'edge': {u'target': [], u'time': []}}, u'click': {u'state': {u'target': [u'5', u'6', u'7'], u'time': [1482, 2336, 3233]}, u'edge': {u'target': [], u'time': []}}, u'mouseout': {u'state': {u'target': [], u'time': []}, u'edge': {u'target': [], u'time': []}}}","[10, -10, 10]","[4265, 112, 69]",7.0,"[None, None, None]","[u'', 5, -5, -5, -10, 10, -10, 10, -10, 5, -10, 10, -10]",713328,49.0,8527.0,-5.537817334537116e+18,mouselab-mdp,2
"[33706, 34641, 35314]","[u'left', u'left', u'down']",train_basic,"[u'0', u'9', u'10', u'12']","{u'mouseover': {u'state': {u'target': [], u'time': []}, u'edge': {u'target': [], u'time': []}}, u'click': {u'state': {u'target': [], u'time': []}, u'edge': {u'target': [], u'time': []}}, u'mouseout': {u'state': {u'target': [], u'time': []}, u'edge': {u'target': [], u'time': []}}}","[10, 5, 10]","[33703, 436, 171]",25.0,"[None, None, None]","[u'', 10, 5, -10, 5, -5, 5, 10, -5, 10, 5, -10, 10]",44470,0.0,44401.0,-6.457953215426968e+18,mouselab-mdp,3
"[5390, 6428, 7100]","[u'right', u'right', u'up']",train_basic,"[u'0', u'5', u'6', u'7']","{u'mouseover': {u'state': {u'target': [], u'time': []}, u'edge': {u'target': [], u'time': []}}, u'click': {u'state': {u'target': [], u'time': []}, u'edge': {u'target': [], u'time': []}}, u'mouseout': {u'state': {u'target': [], u'time': []}, u'edge': {u'target': [], u'time': []}}}","[10, 5, 5]","[5388, 548, 171]",20.0,"[None, None, None]","[u'', -10, 5, -10, -5, 10, 5, 5, -10, -5, 5, 10, -10]",53998,1.0,8484.0,3.5302878717738757e+18,mouselab-mdp,3
"[2441, 3041, 3641]","[u'left', u'left', u'down']",train_basic,"[u'0', u'9', u'10', u'12']","{u'mouseover': {u'state': {u'target': [], u'time': []}, u'edge': {u'target': [], u'time': []}}, u'click': {u'state': {u'target': [], u'time': []}, u'edge': {u'target': [], u'time': []}}, u'mouseout': {u'state': {u'target': [], u'time': []}, u'edge': {u'target': [], u'time': []}}}","[10, 10, 10]","[2440, 101, 100]",30.0,"[None, None, None]","[u'', -10, 10, 10, -5, -5, 10, -5, -10, 10, 10, -5, 10]",60334,2.0,5296.0,-4.1003180650031995e+18,mouselab-mdp,3
"[6370, 7409, 7993]","[u'up', u'up', u'left']",train_basic,"[u'0', u'1', u'2', u'4']","{u'mouseover': {u'state': {u'target': [], u'time': []}, u'edge': {u'target': [], u'time': []}}, u'click': {u'state': {u'target': [], u'time': []}, u'edge': {u'target': [], u'time': []}}, u'mouseout': {u'state': {u'target': [], u'time': []}, u'edge': {u'target': [], u'time': []}}}","[5, 5, 10]","[6369, 536, 90]",20.0,"[None, None, None]","[u'', 5, 5, 5, 10, 5, -5, -5, -10, -5, -10, 10, -10]",72135,3.0,10761.0,5.189627300054367e+18,mouselab-mdp,3
"[2827, 3426, 4074]","[u'up', u'up', u'left']",train_basic,"[u'0', u'1', u'2', u'4']","{u'mouseover': {u'state': {u'target': [], u'time': []}, u'edge': {u'target': [], u'time': []}}, u'click': {u'state': {u'target': [], u'time': []}, u'edge': {u'target': [], u'time': []}}, u'mouseout': {u'state': {u'target': [], u'time': []}, u'edge': {u'target': [], u'time': []}}}","[5, 5, 10]","[2826, 103, 151]",20.0,"[None, None, None]","[u'', 5, 5, -5, 10, 5, -5, 5, 5, 5, -5, -10, -5]",79135,4.0,5963.0,7.374792400222714e+18,mouselab-mdp,3
"[7825, 8450, 9018]","[u'left', u'left', u'down']",train_basic,"[u'0', u'9', u'10', u'12']","{u'mouseover': {u'state': {u'target': [], u'time': []}, u'edge': {u'target': [], u'time': []}}, u'click': {u'state': {u'target': [], u'time': []}, u'edge': {u'target': [], u'time': []}}, u'mouseout': {u'state': {u'target': [], u'time': []}, u'edge': {u'target': [], u'time': []}}}","[10, -5, 10]","[7824, 124, 78]",15.0,"[None, None, None]","[u'', 10, -10, 10, 5, -5, -5, 5, -5, 10, -5, 10, 10]",90270,5.0,10064.0,-2.528293413986772e+18,mouselab-mdp,3
"[1398, 2375, 3112]","[u'left', u'left', u'up']",train_basic,"[u'0', u'9', u'10', u'11']","{u'mouseover': {u'state': {u'target': [], u'time': []}, u'edge': {u'target': [], u'time': []}}, u'click': {u'state': {u'target': [], u'time': []}, u'edge': {u'target': [], u'time': []}}, u'mouseout': {u'state': {u'target': [], u'time': []}, u'edge': {u'target': [], u'time': []}}}","[10, 5, 10]","[1398, 474, 241]",25.0,"[None, None, None]","[u'', 5, -5, -10, -5, -5, -5, 10, -5, 10, 5, 10, -5]",95310,6.0,3967.0,1.1475102415505539e+18,mouselab-mdp,3
"[3320, 3905, 4497]","[u'left', u'left', u'down']",train_basic,"[u'0', u'9', u'10', u'12']","{u'mouseover': {u'state': {u'target': [], u'time': []}, u'edge': {u'target': [], u'time': []}}, u'click': {u'state': {u'target': [], u'time': []}, u'edge': {u'target': [], u'time': []}}, u'mouseout': {u'state': {u'target': [], u'time': []}, u'edge': {u'target': [], u'time': []}}}","[5, -5, 5]","[3319, 82, 92]",5.0,"[None, None, None]","[u'', -10, -5, -5, 5, -10, -10, -10, -10, 5, -5, -5, 5]",101542,7.0,5200.0,-9.136662483728007e+18,mouselab-mdp,3
"[2240, 2832, 3464]","[u'up', u'up', u'left']",train_basic,"[u'0', u'1', u'2', u'4']","{u'mouseover': {u'state': {u'target': [], u'time': []}, u'edge': {u'target': [], u'time': []}}, u'click': {u'state': {u'target': [], u'time': []}, u'edge': {u'target': [], u'time': []}}, u'mouseout': {u'state': {u'target': [], u'time': []}, u'edge': {u'target': [], u'time': []}}}","[10, 10, 10]","[2239, 90, 138]",30.0,"[None, None, None]","[u'', 10, 10, 10, 10, -10, -10, -10, 5, 10, 10, 5, 5]",107326,8.0,4719.0,1.1933479039128937e+18,mouselab-mdp,3
"[939, 1483, 2123]","[u'left', u'left', u'down']",train_basic,"[u'0', u'9', u'10', u'12']","{u'mouseover': {u'state': {u'target': [], u'time': []}, u'edge': {u'target': [], u'time': []}}, u'click': {u'state': {u'target': [], u'time': []}, u'edge': {u'target': [], u'time': []}}, u'mouseout': {u'state': {u'target': [], u'time': []}, u'edge': {u'target': [], u'time': []}}}","[10, 10, 10]","[937, 48, 138]",30.0,"[None, None, None]","[u'', 5, -5, -5, -5, -10, 5, 5, -10, 10, 10, 10, 10]",111886,9.0,3474.0,6.349377679140465e+18,mouselab-mdp,3
"[9953, 11083, 11923]","[u'left', u'left', u'up']",train_hidden,"[u'0', u'9', u'10', u'11']","{u'mouseover': {u'state': {u'target': [], u'time': []}, u'edge': {u'target': [], u'time': []}}, u'click': {u'state': {u'target': [], u'time': []}, u'edge': {u'target': [], u'time': []}}, u'mouseout': {u'state': {u'target': [], u'time': []}, u'edge': {u'target': [], u'time': []}}}","[-10, 5, 5]","[9953, 631, 353]",0.0,"[None, None, None]","[u'', -5, 10, 10, 5, 10, 10, 10, 10, -10, 5, 5, 5]",128814,10.0,13722.0,-6.980762109714071e+18,mouselab-mdp,3
"[733, 1613, 2621]","[u'up', u'up', u'left']",train_hidden,"[u'0', u'1', u'2', u'4']","{u'mouseover': {u'state': {u'target': [], u'time': []}, u'edge': {u'target': [], u'time': []}}, u'click': {u'state': {u'target': [], u'time': []}, u'edge': {u'target': [], u'time': []}}, u'mouseout': {u'state': {u'target': [], u'time': []}, u'edge': {u'target': [], u'time': []}}}","[10, -5, -5]","[731, 379, 487]",0.0,"[None, None, None]","[u'', 10, -5, 5, -5, -5, -5, -5, -5, 5, -5, 10, 5]",133742,11.0,3892.0,1.3034732393768448e+18,mouselab-mdp,3
"[659, 1572, 2355]","[u'left', u'left', u'up']",train_hidden,"[u'0', u'9', u'10', u'11']","{u'mouseover': {u'state': {u'target': [], u'time': []}, u'edge': {u'target': [], u'time': []}}, u'click': {u'state': {u'target': [], u'time': []}, u'edge': {u'target': [], u'time': []}}, u'mouseout': {u'state': {u'target': [], u'time': []}, u'edge': {u'target': [], u'time': []}}}","[5, 10, -5]","[659, 416, 282]",10.0,"[None, None, None]","[u'', 5, -10, 10, -10, -5, 10, -10, 5, 5, 10, -5, -10]",138342,12.0,3547.0,-5.616229570178317e+18,mouselab-mdp,3
"[770, 1620, 2724]","[u'left', u'left', u'down']",train_hidden,"[u'0', u'9', u'10', u'12']","{u'mouseover': {u'state': {u'target': [], u'time': []}, u'edge': {u'target': [], u'time': []}}, u'click': {u'state': {u'target': [], u'time': []}, u'edge': {u'target': [], u'time': []}}, u'mouseout': {u'state': {u'target': [], u'time': []}, u'edge': {u'target': [], u'time': []}}}","[10, -5, -5]","[770, 356, 595]",0.0,"[None, None, None]","[u'', 10, -5, -10, -10, -10, 10, -10, -5, 10, -5, 10, -5]",143174,13.0,3803.0,9.076059563084848e+18,mouselab-mdp,3
"[334, 1167, 2079]","[u'left', u'left', u'up']",train_hidden,"[u'0', u'9', u'10', u'11']","{u'mouseover': {u'state': {u'target': [], u'time': []}, u'edge': {u'target': [], u'time': []}}, u'click': {u'state': {u'target': [], u'time': []}, u'edge': {u'target': [], u'time': []}}, u'mouseout': {u'state': {u'target': [], u'time': []}, u'edge': {u'target': [], u'time': []}}}","[5, -10, 10]","[334, 340, 420]",5.0,"[None, None, None]","[u'', 5, -5, -5, -10, 10, -10, 10, -10, 5, -10, 10, -10]",147237,14.0,3029.0,-5.537817334537116e+18,mouselab-mdp,3
"[38381, 38940, 39475]","[u'up', u'up', u'right']",train_inspector,"[u'0', u'1', u'2', u'3']","{u'mouseover': {u'state': {u'target': [], u'time': []}, u'edge': {u'target': [], u'time': []}}, u'click': {u'state': {u'target': [u'8', u'4', u'3', u'10', u'11', u'9', u'5', u'1', u'6', u'7', u'2'], u'time': [15222, 20356, 21456, 22684, 23769, 25458, 27673, 28993, 29820, 30456, 32620]}, u'edge': {u'target': [], u'time': []}}, u'mouseout': {u'state': {u'target': [], u'time': []}, u'edge': {u'target': [], u'time': []}}}","[-5, 10, 5]","[38380, 58, 26]",10.0,"[None, None, None]","[u'', -5, 10, 5, -5, -10, -5, 5, -5, -5, -5, 10, -5]",191583,15.0,41579.0,6.150233340115579e+18,mouselab-mdp,3
"[9396, 10331, 10965]","[u'right', u'right', u'up']",train_inspector,"[u'0', u'5', u'6', u'7']","{u'mouseover': {u'state': {u'target': [], u'time': []}, u'edge': {u'target': [], u'time': []}}, u'click': {u'state': {u'target': [u'2', u'6', u'10', u'8', u'7', u'5'], u'time': [4996, 5637, 6224, 7213, 7900, 8449]}, u'edge': {u'target': [], u'time': []}}, u'mouseout': {u'state': {u'target': [], u'time': []}, u'edge': {u'target': [], u'time': []}}}","[10, 10, 10]","[9395, 435, 135]",30.0,"[None, None, None]","[u'', -5, -10, -5, 10, 10, 10, 10, -10, -10, -10, -5, -10]",205895,16.0,13236.0,2.356810097693599e+18,mouselab-mdp,3
"[18211, 18996, 19500]","[u'left', u'left', u'up']",train_inspector,"[u'0', u'9', u'10', u'11']","{u'mouseover': {u'state': {u'target': [], u'time': []}, u'edge': {u'target': [], u'time': []}}, u'click': {u'state': {u'target': [u'6', u'10', u'7', u'8', u'5', u'2', u'4', u'3', u'1', u'12', u'9', u'11'], u'time': [1797, 2521, 4920, 5600, 6179, 7224, 7816, 8256, 8808, 13492, 14679, 16844]}, u'edge': {u'target': [], u'time': []}}, u'mouseout': {u'state': {u'target': [], u'time': []}, u'edge': {u'target': [], u'time': []}}}","[10, 5, 5]","[18210, 287, 7]",20.0,"[None, None, None]","[u'', 10, 10, -10, -10, -10, 10, -10, -5, 10, 5, 5, -5]",227887,17.0,20955.0,1.2413699960697694e+17,mouselab-mdp,3
"[8746, 9529, 10089]","[u'right', u'right', u'up']",train_inspector,"[u'0', u'5', u'6', u'7']","{u'mouseover': {u'state': {u'target': [], u'time': []}, u'edge': {u'target': [], u'time': []}}, u'click': {u'state': {u'target': [u'10', u'6', u'2', u'5', u'7'], u'time': [1890, 2640, 3701, 6046, 7217]}, u'edge': {u'target': [], u'time': []}}, u'mouseout': {u'state': {u'target': [], u'time': []}, u'edge': {u'target': [], u'time': []}}}","[10, 5, 10]","[8745, 282, 58]",25.0,"[None, None, None]","[u'', 5, -10, 5, 10, 10, 5, 10, 10, 5, -10, -10, -10]",240311,18.0,11385.0,2.8266579347923113e+18,mouselab-mdp,3
"[18184, 19030, 19583]","[u'up', u'up', u'right']",train_inspector,"[u'0', u'1', u'2', u'3']","{u'mouseover': {u'state': {u'target': [], u'time': []}, u'edge': {u'target': [], u'time': []}}, u'click': {u'state': {u'target': [u'10', u'2', u'6', u'7', u'8', u'4', u'3', u'1', u'11', u'9', u'12'], u'time': [4556, 5540, 6356, 6962, 8408, 9491, 10352, 10881, 13536, 14220, 16320]}, u'edge': {u'target': [], u'time': []}}, u'mouseout': {u'state': {u'target': [], u'time': []}, u'edge': {u'target': [], u'time': []}}}","[-5, 10, 5]","[18183, 349, 53]",10.0,"[None, None, None]","[u'', -5, 10, 5, 5, -5, 5, -5, -10, 5, -5, 5, 10]",262766,19.0,21422.0,-5.812682556850434e+18,mouselab-mdp,3
"[9297, 9994, 10753]","[u'up', u'up', u'right']",train_inspect_cost,"[u'0', u'1', u'2', u'3']","{u'mouseover': {u'state': {u'target': [], u'time': []}, u'edge': {u'target': [], u'time': []}}, u'click': {u'state': {u'target': [], u'time': []}, u'edge': {u'target': [], u'time': []}}, u'mouseout': {u'state': {u'target': [], u'time': []}, u'edge': {u'target': [], u'time': []}}}","[-5, 5, -10]","[9296, 194, 255]",-10.0,"[None, None, None]","[u'', -5, 5, -10, -5, -5, 5, 10, -5, 10, -5, 5, -10]",278726,20.0,12649.0,8.572648276602424e+18,mouselab-mdp,3
